loggingTime,loggingTimeElapsed,loggingSample,locationTimestamp_since1970,locationLatitude,locationLongitude,locationAltitude,locationVerticalAccuracy,locationHorizontalAccuracy,locationHeadingTimestamp_since1970,locationHeadingX,locationHeadingY,locationHeadingZ,locationTrueHeading,locationMagneticHeading,locationHeadingAccuracy,accelerometerTimestamp_sinceReboot,accelerometerAccelerationX,accelerometerAccelerationY,accelerometerAccelerationZ,gyroTimestamp_sinceReboot,gyroRotationX,gyroRotationY,gyroRotationZ,altimeterTimestamp_sinceReboot,altimeterReset,altimeterRelativeAltitude,altimeterPressure,,,
1591401226.02,0,1,1591401220,1.301263484,103.835952,17.39661,12.20711708,7000.092435,1591401226,253.5717773,-2.039581299,-83.65963745,241.8532867,241.7108459,14.90377903,208580.7825,0.1445465088,0.05816650391,-0.9925079346,208580.7451,-0.01094266213,0.01379224472,-0.009339706041,208577.4417,1,-1.022578,101.298,,,1843
1591401226.04,0.02,2,1591401220,1.301263484,103.835952,17.39661,12.20711708,7000.092435,1591401226,253.5717773,-2.039581299,-83.65963745,241.8532867,241.7108459,14.90377903,208580.8224,0.1451873779,0.05863952637,-0.9873657227,208580.785,-0.01047794055,0.02468484081,-0.008700813167,208577.4417,0,-1.022578,101.298,,,2433
1591401226.08,0.06,3,1591401220,1.301263484,103.835952,17.39661,12.20711708,7000.092435,1591401226,253.7927246,-3.713577271,-83.5279541,241.8514862,241.7090454,14.90377522,208580.8623,0.145111084,0.05754089355,-0.9885406494,208580.8249,-0.01154746674,0.005966812372,-0.01104066707,208578.4,0,-0.9987969,101.2977,,,
1591401226.14,0.11,4,1591401220,1.301263484,103.835952,17.39661,12.20711708,7000.092435,1591401226,253.9477539,-5.096099854,-83.22689819,241.8495483,241.7071075,14.90377045,208580.9022,0.1474761963,0.05642700195,-0.9900512695,208580.8648,-0.01150006242,0.01028965507,-0.009744239971,208578.4,0,-0.9987969,101.2977,,,
1591401226.16,0.14,5,1591401220,1.301263484,103.835952,17.39661,12.20711708,7000.092435,1591401226,253.1333008,-6.169265747,-83.14855957,241.8481598,241.705719,14.90376663,208580.9422,0.1436157227,0.05830383301,-0.9877624512,208580.9047,-0.009753827006,0.01165905315,-0.008858206682,208578.4,0,-0.9987969,101.2977,,,
1591401226.20,0.18,6,1591401220,1.301263484,103.835952,17.39661,12.20711708,7000.092435,1591401226,252.2098389,-7.030334473,-82.79312134,241.8478851,241.7054443,14.90376186,208580.9821,0.1437225342,0.06088256836,-0.9933319092,208580.9447,-0.01100924145,0.008979380131,-0.009859289043,208578.4,0,-0.9987969,101.2977,,,
1591401226.25,0.23,7,1591401220,1.301263484,103.835952,17.39661,12.20711708,7000.092435,1591401226,250.4094238,-7.853683472,-82.54318237,241.8486176,241.7061768,14.90375805,208581.022,0.1453704834,0.0591583252,-0.9912261963,208580.9846,-0.009178584442,0.005821936298,-0.009777262807,208578.4,0,-0.9987969,101.2977,,,
1591401226.28,0.26,8,1591401220,1.301263484,103.835952,17.39661,12.20711708,7000.092435,1591401226,250.4094238,-7.853683472,-82.54318237,241.8486176,241.7061768,14.90375805,208581.0619,0.1468505859,0.05667114258,-0.9912719727,208581.0245,-0.006354302168,0.005077316426,-0.009492571466,208578.4,0,-0.9987969,101.2977,,,
1591401226.32,0.30,9,1591401220,1.301263484,103.835952,17.39661,12.20711708,7000.092435,1591401226,248.8820801,-8.450485229,-82.08755493,241.848526,241.7060852,14.90375423,208581.1018,0.1461181641,0.05690002441,-0.9871063232,208581.0644,-0.006817426067,0.006583866663,-0.01083400566,208578.4,0,-0.9987969,101.2977,,,
1591401226.37,0.35,10,1591401220,1.301263484,103.835952,17.39661,12.20711708,7000.092435,1591401226,247.0192871,-8.21257019,-82.14147949,241.8476105,241.7051697,14.90374947,208581.1417,0.1472167969,0.05960083008,-0.9889984131,208581.1043,-0.008180165663,0.008068579249,-0.008108792827,208578.4,0,-0.9987969,101.2977,,,
1591401226.40,0.38,11,1591401220,1.301263484,103.835952,17.39661,12.20711708,7000.092435,1591401226,245.3599854,-8.515274048,-81.82458496,241.849823,241.7073822,14.9037466,208581.1817,0.1423492432,0.05815124512,-0.9912719727,208581.1442,-0.01036182698,0.005009139888,-0.008416388184,208578.4,0,-0.9987969,101.2977,,,
1591401226.44,0.42,12,1591401220,1.301263484,103.835952,17.39661,12.20711708,7000.092435,1591401226,245.3599854,-8.515274048,-81.82458496,241.849823,241.7073822,14.9037466,208581.2216,0.1443939209,0.05787658691,-0.9901275635,208581.1842,-0.009515740909,0.002822151873,-0.01064518746,208578.4,0,-0.9987969,101.2977,,,
1591401226.49,0.47,13,1591401220,1.301263484,103.835952,17.39661,12.20711708,7000.092435,1591401226,242.848999,-9.726211548,-81.28964233,241.8484344,241.7059937,14.90374088,208581.2615,0.1435394287,0.05764770508,-0.9954986572,208581.2241,-0.01006941218,0.001084971824,-0.01036795229,208578.4,0,-0.9987969,101.2977,,,
1591401226.52,0.50,14,1591401220,1.301263484,103.835952,17.39661,12.20711708,7000.092435,1591401226,240.0742188,-9.941894531,-80.78384399,241.850708,241.7082672,14.90373802,208581.3014,0.1448669434,0.05854797363,-0.9922790527,208581.264,-0.008546084166,0.008318649605,-0.008735168725,208578.4,0,-0.9987969,101.2977,,,
1591401226.56,0.54,15,1591401220,1.301263484,103.835952,17.39661,12.20711708,7000.092435,1591401227,237.8015137,-9.195999146,-80.41217041,241.8506775,241.7082367,14.90373421,208581.3413,0.1435699463,0.05667114258,-0.9898071289,208581.3039,-0.01000975724,0.002352902899,-0.01065823715,208578.4,0,-0.9987969,101.2977,,,
1591401226.61,0.59,16,1591401220,1.301263484,103.835952,17.39661,12.20711708,7000.092435,1591401227,234.840332,-9.708999634,-80.0423584,241.8517914,241.7093506,14.90372944,208581.3812,0.1452636719,0.05769348145,-0.9912414551,208581.3438,-0.00450234022,0.006719954312,-0.009688845836,208578.4,0,-0.9987969,101.2977,,,
1591401226.64,0.62,17,1591401220,1.301263484,103.835952,17.39661,12.20711708,7000.092435,1591401227,234.840332,-9.708999634,-80.0423584,241.8517914,241.7093506,14.90372944,208581.4212,0.1446228027,0.05741882324,-0.9899597168,208581.3837,-0.007474960294,0.003949468024,-0.01015676372,208578.4,0,-0.9987969,101.2977,,,
1591401226.68,0.66,18,1591401220,1.301263484,103.835952,17.39661,12.20711708,7000.092435,1591401227,231.7122803,-9.88168335,-79.48168945,241.8518219,241.7093811,14.90372562,208581.4611,0.1483764648,0.05767822266,-0.9896697998,208581.4237,-0.008054730482,0.002955043456,-0.01085184887,208578.4,0,-0.9987969,101.2977,,,
1591401226.73,0.71,19,1591401220,1.301263484,103.835952,17.39661,12.20711708,7000.092435,1591401227,228.8868408,-9.611083984,-79.20291138,241.8492737,241.7068329,14.90372181,208581.501,0.1461029053,0.05810546875,-0.9908447266,208581.4636,-0.007993478328,0.002879942302,-0.009417204186,208578.4,0,-0.9987969,101.2977,,,
1591401226.76,0.74,20,1591401220,1.301263484,103.835952,17.39661,12.20711708,7000.092435,1591401227,226.1744385,-8.833343506,-78.54360962,241.8480682,241.7056274,14.90371895,208581.5409,0.1462860107,0.05773925781,-0.9896240234,208581.5035,-0.006889597513,0.003668237943,-0.008701079525,208578.4,0,-0.9987969,101.2977,,,
1591401226.80,0.78,21,1591401220,1.301263484,103.835952,17.39661,12.20711708,7000.092435,1591401227,223.2989502,-7.886917114,-78.0925293,241.8475189,241.7050781,14.90371513,208581.5808,0.1454315186,0.05879211426,-0.9907073975,208581.5434,-0.007909322158,0.003154780716,-0.01105238497,208578.4,0,-0.9987969,101.2977,,,
1591401226.85,0.83,22,1591401220,1.301263484,103.835952,17.39661,12.20711708,7000.092435,1591401227,220.0771484,-7.969467163,-77.26712036,241.8462067,241.7037659,14.90371227,208581.6208,0.1439971924,0.05975341797,-0.9888763428,208581.5833,-0.005286108237,0.0108393319,-0.0108904643,208578.4,0,-0.9987969,101.2977,,,
1591401226.88,0.86,23,1591401220,1.301263484,103.835952,17.39661,12.20711708,7000.092435,1591401227,220.0771484,-7.969467163,-77.26712036,241.8462067,241.7037659,14.90371227,208581.6607,0.1444854736,0.05876159668,-0.9897460938,208581.6233,-0.008535963483,-0.001320661628,-0.007295463234,208578.4,0,-0.9987969,101.2977,,,
1591401226.92,0.90,24,1591401220,1.301263484,103.835952,17.39661,12.20711708,7000.092435,1591401227,218.4605713,-7.330841064,-77.07601929,241.8472443,241.7048035,14.90370846,208581.7006,0.1455078125,0.05729675293,-0.9874267578,208581.6632,-0.008204400539,0.006802778691,-0.01118580904,208578.4,0,-0.9987969,101.2977,,,
1591401226.97,0.95,25,1591401220,1.301263484,103.835952,17.39661,12.20711708,7000.092435,1591401227,215.9827881,-7.886077881,-76.79910278,241.8477936,241.7053528,14.9037056,208581.7405,0.1498565674,0.05917358398,-0.9961700439,208581.7031,-0.007126885466,0.02344487235,-0.01064944826,208578.4,0,-0.9987969,101.2977,,,
1591401227.00,0.98,26,1591401220,1.301263484,103.835952,17.39661,12.20711708,7000.092435,1591401227,212.7227783,-8.096191406,-76.08630371,241.8483429,241.7059021,14.90370178,208581.7804,0.1421813965,0.05744934082,-0.9872436523,208581.743,-0.01062201802,0.007100786548,-0.01073280536,208578.4,0,-0.9987969,101.2977,,,
1591401227.04,1.02,27,1591401220,1.301263484,103.835952,17.39661,12.20711708,7000.092435,1591401227,212.7227783,-8.096191406,-76.08630371,241.8483429,241.7059021,14.90370178,208581.8203,0.1515350342,0.05914306641,-0.9889678955,208581.7829,-0.007740743924,-0.001666872529,-0.009326123632,208579.3581,0,-0.9935122,101.2976,,,
1591401227.09,1.07,28,1591401220,1.301263484,103.835952,17.39661,12.20711708,7000.092435,1591401227,209.5889893,-7.57649231,-75.48690796,241.8487701,241.7063293,14.90369797,208581.8603,0.1442718506,0.05627441406,-0.9868927002,208581.8228,-0.01071629394,0.008829178289,-0.008478439413,208579.3581,0,-0.9935122,101.2976,,,
1591401227.12,1.10,29,1591401220,1.301263484,103.835952,17.39661,12.20711708,7000.092435,1591401227,206.4014893,-6.983276367,-74.95498657,241.8482056,241.7057648,14.90369511,208581.9002,0.1444854736,0.05757141113,-0.991394043,208581.8628,-0.006466687657,0.005600361619,-0.007720503956,208579.3581,0,-0.9935122,101.2976,,,
1591401227.16,1.14,30,1591401220,1.301263484,103.835952,17.39661,12.20711708,7000.092435,1591401227,204.0445557,-5.506164551,-74.75384521,241.8465729,241.7041321,14.9036932,208581.9401,0.1429748535,0.0592956543,-0.9921417236,208581.9027,-0.007070160005,0.001007473795,-0.008064850233,208579.3581,0,-0.9935122,101.2976,,,
1591401227.21,1.19,31,1591401220,1.301263484,103.835952,17.39661,12.20711708,7000.092435,1591401227,201.4716797,-4.646789551,-74.42623901,241.8475189,241.7050781,14.90368938,208581.98,0.1515350342,0.05902099609,-0.9888916016,208581.9426,-0.004008856136,0.01009897329,-0.007263239007,208579.3581,0,-0.9935122,101.2976,,,
1591401227.24,1.22,32,1591401220,1.301263484,103.835952,17.39661,12.20711708,7000.092435,1591401227,201.4716797,-4.646789551,-74.42623901,241.8475189,241.7050781,14.90368938,208582.0199,0.1346740723,0.05386352539,-0.9926300049,208581.9825,-0.005001949146,0.00643233303,-0.008872320876,208579.3581,0,-0.9935122,101.2976,,,
1591401227.28,1.26,33,1591401220,1.301263484,103.835952,17.39661,12.20711708,7000.092435,1591401227,199.2011719,-3.425720215,-74.16424561,241.8474731,241.7050323,14.90368652,208582.0599,0.1533660889,0.06051635742,-0.9909210205,208582.0224,-0.008244614117,-0.004795554094,-0.01155891828,208579.3581,0,-0.9935122,101.2976,,,
1591401227.33,1.31,34,1591401220,1.301263484,103.835952,17.39661,12.20711708,7000.092435,1591401227,196.9813232,-3.370895386,-73.97201538,241.8480835,241.7056427,14.90368462,208582.0998,0.1431732178,0.05796813965,-0.9947357178,208582.0624,-0.01021428779,0.01503966935,-0.01076955721,208579.3581,0,-0.9935122,101.2976,,,
1591401227.36,1.34,35,1591401220,1.301263484,103.835952,17.39661,12.20711708,7000.092435,1591401227,195.5899658,-1.755157471,-73.84939575,241.8473358,241.704895,14.9036808,208582.1397,0.1461791992,0.05738830566,-0.9888000488,208582.1023,-0.008931975812,0.006967362016,-0.008138353936,208579.3581,0,-0.9935122,101.2976,,,
1591401227.40,1.38,36,1591401220,1.301263484,103.835952,17.39661,12.20711708,7000.092435,1591401227,193.7750244,-1.028442383,-73.6362915,241.8487091,241.7062683,14.90367985,208582.1796,0.1477050781,0.05688476563,-0.9895782471,208582.1422,-0.00835193973,-0.005171325989,-0.008488293737,208579.3581,0,-0.9935122,101.2976,,,
1591401227.45,1.43,37,1591401220,1.301263484,103.835952,17.39661,12.20711708,7000.092435,1591401227,192.9493408,0.04835510254,-73.58157349,241.8501434,241.7077026,14.90367794,208582.2195,0.149017334,0.05905151367,-0.9869689941,208582.1821,-0.008674714714,0.007684018463,-0.0120875556,208579.3581,0,-0.9935122,101.2976,,,
1591401227.48,1.46,38,1591401220,1.301263484,103.835952,17.39661,12.20711708,7000.092435,1591401227,192.9493408,0.04835510254,-73.58157349,241.8501434,241.7077026,14.90367794,208582.2594,0.1462402344,0.05648803711,-0.9891204834,208582.222,-0.00900308229,0.005175587256,-0.009846505709,208579.3581,0,-0.9935122,101.2976,,,
1591401227.52,1.50,39,1591401220,1.301263484,103.835952,17.39661,12.20711708,7000.092435,1591401227,192.0355225,0.9890594482,-73.55056763,241.849884,241.7074432,14.90367603,208582.2994,0.1447296143,0.05986022949,-0.9930114746,208582.2619,-0.007071491797,0.0063340622,-0.009348227642,208579.3581,0,-0.9935122,101.2976,,,
1591401227.57,1.55,40,1591401220,1.301263484,103.835952,17.39661,12.20711708,7000.092435,1591401228,192.2011719,2.181259155,-73.34402466,241.8490295,241.7065887,14.90367413,208582.3393,0.1438446045,0.05880737305,-0.9921264648,208582.3019,-0.008149272762,-0.0009504822083,-0.01224015467,208579.3581,0,-0.9935122,101.2976,,,
1591401227.60,1.58,41,1591401220,1.301263484,103.835952,17.39661,12.20711708,7000.092435,1591401228,192.4298096,3.24029541,-73.5112915,241.8486023,241.7061615,14.90367317,208582.3792,0.1453552246,0.05947875977,-0.9870758057,208582.3418,-0.006617156323,0.01381328423,-0.009596434422,208579.3581,0,-0.9935122,101.2976,,,
1591401227.64,1.62,42,1591401220,1.301263484,103.835952,17.39661,12.20711708,7000.092435,1591401228,192.4298096,3.24029541,-73.5112915,241.8486023,241.7061615,14.90367317,208582.4191,0.1443939209,0.05569458008,-0.9883575439,208582.3817,-0.007429686841,0.01176478062,-0.01198182814,208579.3581,0,-0.9935122,101.2976,,,
1591401227.69,1.67,43,1591401220,1.301263484,103.835952,17.39661,12.20711708,7000.092435,1591401228,192.2265625,3.764678955,-73.71377563,241.8473206,241.7048798,14.90366936,208582.459,0.1481933594,0.05834960938,-0.9876708984,208582.4216,-0.01016422082,-0.01359783392,-0.009127984755,208579.3581,0,-0.9935122,101.2976,,,
1591401227.72,1.70,44,1591401220,1.301263484,103.835952,17.39661,12.20711708,7000.092435,1591401228,192.2265625,3.764678955,-73.71377563,241.8473206,241.7048798,14.90366936,208582.4989,0.1472473145,0.05825805664,-0.9941101074,208582.4615,-0.007114634849,0.008048871532,-0.007044327445,208579.3581,0,-0.9935122,101.2976,,,
1591401227.76,1.74,45,1591401220,1.301263484,103.835952,17.39661,12.20711708,7000.092435,1591401228,192.4907227,4.294265747,-73.71646118,241.844986,241.7025452,14.90366745,208582.5389,0.1502380371,0.05888366699,-0.9937133789,208582.5014,-0.01153734606,0.007556719705,-0.008560731076,208579.3581,0,-0.9935122,101.2976,,,
1591401227.81,1.79,46,1591401220,1.301263484,103.835952,17.39661,12.20711708,7000.092435,1591401228,192.1547852,4.289138794,-73.88980103,241.8440704,241.7016296,14.90366554,208582.5788,0.1444244385,0.05667114258,-0.9891967773,208582.5414,-0.008805742487,0.00850560423,-0.008045942523,208579.3581,0,-0.9935122,101.2976,,,
1591401227.84,1.82,47,1591401220,1.301263484,103.835952,17.39661,12.20711708,7000.092435,1591401228,192.1547852,4.289138794,-73.88980103,241.8440704,241.7016296,14.90366554,208582.6187,0.1462249756,0.05630493164,-0.9949798584,208582.5813,-0.01002094243,-0.006091980729,-0.01080763992,208579.3581,0,-0.9935122,101.2976,,,
1591401227.88,1.86,48,1591401220,1.301263484,103.835952,17.39661,12.20711708,7000.092435,1591401228,192.7661133,5.054870605,-73.8505249,241.8444061,241.7019653,14.90366459,208582.6586,0.1488037109,0.05810546875,-0.9875488281,208582.6212,-0.007779093459,0.005460279062,-0.01064199209,208579.3581,0,-0.9935122,101.2976,,,
1591401227.93,1.91,49,1591401220,1.301263484,103.835952,17.39661,12.20711708,7000.092435,1591401228,193.4543457,4.802215576,-73.92388916,241.8434601,241.7010193,14.90366459,208582.6985,0.1459503174,0.05804443359,-0.9954833984,208582.6611,-0.003323092358,0.01303750463,-0.007439007983,208579.3581,0,-0.9935122,101.2976,,,
1591401227.96,1.94,50,1591401220,1.301263484,103.835952,17.39661,12.20711708,7000.092435,1591401228,193.1156006,4.397155762,-73.90542603,241.8428955,241.7004547,14.90366268,208582.7385,0.1463012695,0.05825805664,-0.9912261963,208582.701,-0.005112470128,0.0004609931784,-0.01045530383,208579.3581,0,-0.9935122,101.2976,,,
1591401228.00,1.98,51,1591401220,1.301263484,103.835952,17.39661,12.20711708,7000.092435,1591401228,193.463623,4.402526855,-73.91934204,241.840683,241.6982422,14.90366077,208582.7784,0.1472930908,0.05847167969,-0.990737915,208582.741,-0.008075503632,0.009508550167,-0.007837416604,208580.3162,0,-0.9935122,101.2976,,,
1591401228.05,2.03,52,1591401220,1.301263484,103.835952,17.39661,12.20711708,7000.092435,1591401228,193.567627,4.673675537,-73.83230591,241.841629,241.6991882,14.90366077,208582.8183,0.1457061768,0.05833435059,-0.993057251,208582.7809,-0.01465644035,0.002174471039,-0.007961519994,208580.3162,0,-0.9935122,101.2976,,,
1591401228.08,2.06,53,1591401220,1.301263484,103.835952,17.39661,12.20711708,7000.092435,1591401228,193.567627,4.673675537,-73.83230591,241.841629,241.6991882,14.90366077,208582.8582,0.1491546631,0.05815124512,-0.9883728027,208582.8208,-0.006823551375,-0.0006916229031,-0.01116716675,208580.3162,0,-0.9935122,101.2976,,,
1591401228.12,2.10,54,1591401220,1.301263484,103.835952,17.39661,12.20711708,7000.092435,1591401228,193.6740723,5.089706421,-73.89846802,241.83992,241.6974792,14.90365887,208582.8981,0.1454620361,0.05853271484,-0.9892578125,208582.8607,-0.006506368984,0.01551610883,-0.008884305134,208580.3162,0,-0.9935122,101.2976,,,
1591401228.17,2.15,55,1591401220,1.301263484,103.835952,17.39661,12.20711708,7000.092435,1591401228,193.6717529,4.89440918,-74.00402832,241.8403168,241.697876,14.90365887,208582.938,0.1426696777,0.05924987793,-0.9882202148,208582.9006,-0.005580653902,0.005553489551,-0.01013306156,208580.3162,0,-0.9935122,101.2976,,,
1591401228.20,2.18,56,1591401220,1.301263484,103.835952,17.39661,12.20711708,7000.092435,1591401228,193.6025391,4.358718872,-74.04272461,241.8408966,241.6984558,14.90365887,208582.978,0.1482086182,0.05819702148,-0.9906311035,208582.9405,-0.009601227939,0.00837404374,-0.008325573988,208580.3162,0,-0.9935122,101.2976,,,
1591401228.24,2.22,57,1591401220,1.301263484,103.835952,17.39661,12.20711708,7000.092435,1591401228,193.6025391,4.358718872,-74.04272461,241.8408966,241.6984558,14.90365887,208583.0179,0.1458129883,0.05665588379,-0.9889984131,208582.9805,-0.009639311582,0.01100551337,-0.008915730752,208580.3162,0,-0.9935122,101.2976,,,
1591401228.30,2.27,58,1591401220,1.301263484,103.835952,17.39661,12.20711708,7000.092435,1591401228,194.501709,5.252853394,-74.59741211,241.8408661,241.6984253,14.90365696,208583.0578,0.1478729248,0.05850219727,-0.989440918,208583.0204,-0.007237939164,0.0118955411,-0.009579656646,208580.3162,0,-0.9935122,101.2976,,,
1591401228.32,2.30,59,1591401220,1.301263484,103.835952,17.39661,12.20711708,7000.092435,1591401228,194.501709,5.252853394,-74.59741211,241.8408661,241.6984253,14.90365696,208583.0977,0.1458282471,0.05703735352,-0.9891204834,208583.0603,-0.009950102307,0.003541737795,-0.01011388656,208580.3162,0,-0.9935122,101.2976,,,
1591401228.36,2.34,60,1591401220,1.301263484,103.835952,17.39661,12.20711708,7000.092435,1591401228,195.4367676,5.570144653,-74.70324707,241.8390656,241.6966248,14.90365696,208583.1376,0.1456604004,0.0565032959,-0.9884643555,208583.1002,-0.007624630351,0.009159942158,-0.008272843435,208580.3162,0,-0.9935122,101.2976,,,
1591401228.41,2.39,61,1591401220,1.301263484,103.835952,17.39661,12.20711708,7000.092435,1591401228,196.5368652,6.328735352,-74.83679199,241.8371582,241.6947174,14.90365696,208583.1776,0.1463012695,0.05867004395,-0.9906311035,208583.1401,-0.007232346572,0.002006691881,-0.007251787465,208580.3162,0,-0.9935122,101.2976,,,
1591401228.44,2.42,62,1591401220,1.301263484,103.835952,17.39661,12.20711708,7000.092435,1591401228,196.5368652,6.328735352,-74.83679199,241.8371582,241.6947174,14.90365696,208583.2175,0.1479797363,0.05848693848,-0.9924163818,208583.1801,-0.009787916206,0.005681055132,-0.009756490588,208580.3162,0,-0.9935122,101.2976,,,
1591401228.48,2.46,63,1591401220,1.301263484,103.835952,17.39661,12.20711708,7000.092435,1591401228,197.3016357,5.792205811,-74.80340576,241.8358002,241.6933594,14.90365696,208583.2574,0.1473083496,0.0572052002,-0.9914245605,208583.22,-0.006827013567,0.007755124941,-0.00853356719,208580.3162,0,-0.9935122,101.2976,,,
1591401228.53,2.51,64,1591401220,1.301263484,103.835952,17.39661,12.20711708,7000.092435,1591401228,198.2984619,5.709518433,-74.76455688,241.8351288,241.692688,14.90365696,208583.2973,0.145904541,0.05651855469,-0.9926300049,208583.2599,-0.00813622307,0.005790777504,-0.008635033853,208580.3162,0,-0.9935122,101.2976,,,
1591401228.56,2.54,65,1591401220,1.301263484,103.835952,17.39661,12.20711708,7000.092435,1591401229,198.8284912,5.669067383,-74.69662476,241.8334198,241.690979,14.90365696,208583.3372,0.1471405029,0.05743408203,-0.989364624,208583.2998,-0.01035410352,0.006710366812,-0.01006062329,208580.3162,0,-0.9935122,101.2976,,,
1591401228.60,2.58,66,1591401220,1.301263484,103.835952,17.39661,12.20711708,7000.092435,1591401229,199.708374,5.580368042,-75.22979736,241.8352509,241.6928101,14.90365696,208583.3771,0.1394348145,0.05877685547,-0.9922637939,208583.3397,-0.004494350404,0.005811550189,-0.0112681007,208580.3162,0,-0.9935122,101.2976,,,
1591401228.65,2.63,67,1591401220,1.301263484,103.835952,17.39661,12.20711708,7000.092435,1591401229,200.7703857,5.997940063,-75.36352539,241.8348541,241.6924133,14.90365696,208583.4171,0.1421356201,0.05918884277,-0.9904632568,208583.3796,-0.001757420017,0.003198456485,-0.01028885692,208580.3162,0,-0.9935122,101.2976,,,
1591401228.68,2.66,68,1591401220,1.301263484,103.835952,17.39661,12.20711708,7000.092435,1591401229,200.7703857,5.997940063,-75.36352539,241.8348541,241.6924133,14.90365696,208583.457,0.1445007324,0.06080627441,-0.9887237549,208583.4196,-0.01420317031,0.003526557935,-0.01073919702,208580.3162,0,-0.9935122,101.2976,,,
1591401228.72,2.70,69,1591401220,1.301263484,103.835952,17.39661,12.20711708,7000.092435,1591401229,202.8753662,6.914871216,-75.56253052,241.8334198,241.690979,14.90365887,208583.4969,0.1429290771,0.05668640137,-0.9865570068,208583.4595,-0.01104199886,0.006168946158,-0.008401207626,208580.3162,0,-0.9935122,101.2976,,,
1591401228.77,2.75,70,1591401220,1.301263484,103.835952,17.39661,12.20711708,7000.092435,1591401229,204.5889893,6.720840454,-75.89273071,241.8317719,241.6893311,14.90365887,208583.5368,0.1492614746,0.05781555176,-0.9929199219,208583.5393,-0.003434146289,0.01254162472,-0.008136755787,208580.3162,0,-0.9935122,101.2976,,,
1591401228.80,2.78,71,1591401220,1.301263484,103.835952,17.39661,12.20711708,7000.092435,1591401229,205.6481934,5.274383545,-75.91824341,241.8314667,241.6890259,14.90365887,208583.5767,0.1453399658,0.05746459961,-0.9898986816,208583.5393,-0.003434146289,0.01254162472,-0.008136755787,208580.3162,0,-0.9935122,101.2976,,,
1591401228.84,2.82,72,1591401220,1.301263484,103.835952,17.39661,12.20711708,7000.092435,1591401229,205.6481934,5.274383545,-75.91824341,241.8314667,241.6890259,14.90365887,208583.6166,0.1473846436,0.05876159668,-0.9866943359,208583.5792,-0.008456335403,0.007895739749,-0.009569004178,208580.3162,0,-0.9935122,101.2976,,,
1591401228.89,2.87,73,1591401220,1.301263484,103.835952,17.39661,12.20711708,7000.092435,1591401229,207.2116699,4.183959961,-75.85604858,241.8307953,241.6883545,14.90366077,208583.6566,0.14503479,0.05828857422,-0.9893035889,208583.6191,-0.005195560865,0.006390254945,-0.01106596645,208580.3162,0,-0.9935122,101.2976,,,
1591401228.92,2.90,74,1591401220,1.301263484,103.835952,17.39661,12.20711708,7000.092435,1591401229,207.2116699,4.183959961,-75.85604858,241.8307953,241.6883545,14.90366077,208583.6965,0.1468505859,0.05670166016,-0.9902496338,208583.6591,-0.005076517817,0.01096849516,-0.008560198359,208580.3162,0,-0.9935122,101.2976,,,
1591401228.96,2.94,75,1591401220,1.301263484,103.835952,17.39661,12.20711708,7000.092435,1591401229,206.805542,3.147079468,-76.25411987,241.8292999,241.6868591,14.90366077,208583.7364,0.1443939209,0.05860900879,-0.9889221191,208583.699,-0.01047687605,0.004155863076,-0.009456352331,208581.2743,0,-1.017293,101.2979,,,
1591401229.01,2.99,76,1591401220,1.301263484,103.835952,17.39661,12.20711708,7000.092435,1591401229,206.0264893,2.205245972,-76.11630249,241.8298035,241.6873627,14.90366077,208583.7763,0.1449737549,0.05842590332,-0.9912109375,208583.7389,-0.01203296054,0.007927431725,-0.009594304487,208581.2743,0,-1.017293,101.2979,,,
1591401229.04,3.02,77,1591401220,1.301263484,103.835952,17.39661,12.20711708,7000.092435,1591401229,206.0264893,2.205245972,-76.11630249,241.8298035,241.6873627,14.90366077,208583.8162,0.1450653076,0.05793762207,-0.9923248291,208583.7788,-0.01203402597,0.001639441936,-0.01009258162,208581.2743,0,-1.017293,101.2979,,,
1591401229.08,3.06,78,1591401220,1.301263484,103.835952,17.39661,12.20711708,7000.092435,1591401229,205.6340332,2.439758301,-75.8894043,241.8296051,241.6871643,14.90366268,208583.8562,0.1478729248,0.05700683594,-0.9923553467,208583.8187,-0.008599347435,0.001841043239,-0.01070830412,208581.2743,0,-1.017293,101.2979,,,
1591401229.13,3.11,79,1591401220,1.301263484,103.835952,17.39661,12.20711708,7000.092435,1591401229,205.3745117,2.620803833,-75.69998169,241.829834,241.6873932,14.90366268,208583.8961,0.1460571289,0.05842590332,-0.9889068604,208583.8587,-0.007964715362,0.003052515211,-0.008531169966,208581.2743,0,-1.017293,101.2979,,,
1591401229.16,3.14,80,1591401220,1.301263484,103.835952,17.39661,12.20711708,7000.092435,1591401229,205.5831299,3.082748413,-76.06176758,241.8287506,241.6863098,14.90366459,208583.936,0.1479187012,0.05728149414,-0.9906463623,208583.8986,-0.006573480554,0.002236522734,-0.007441404741,208581.2743,0,-1.017293,101.2979,,,
1591401229.20,3.18,81,1591401220,1.301263484,103.835952,17.39661,12.20711708,7000.092435,1591401229,206.1083984,2.958969116,-75.77029419,241.8298798,241.687439,14.90366554,208583.9759,0.1464233398,0.05824279785,-0.991104126,208583.9385,-0.00780039886,0.006237655878,-0.0120843593,208581.2743,0,-1.017293,101.2979,,,
1591401229.25,3.23,82,1591401220,1.301263484,103.835952,17.39661,12.20711708,7000.092435,1591401229,205.8621826,2.399749756,-75.91467285,241.8301544,241.6877136,14.90366745,208584.0158,0.1467895508,0.05848693848,-0.9895782471,208583.9784,-0.008768457919,0.005603291094,-0.009864881635,208581.2743,0,-1.017293,101.2979,,,
1591401229.28,3.26,83,1591401220,1.301263484,103.835952,17.39661,12.20711708,7000.092435,1591401229,205.8621826,2.399749756,-75.91467285,241.8301544,241.6877136,14.90366745,208584.0557,0.1454162598,0.05854797363,-0.9920043945,208584.0183,-0.009224923328,0.00818655733,-0.007407050114,208581.2743,0,-1.017293,101.2979,,,
1591401229.32,3.30,84,1591401220,1.301263484,103.835952,17.39661,12.20711708,7000.092435,1591401229,206.345459,2.774688721,-76.28988647,241.8325348,241.690094,14.90366745,208584.0957,0.1473846436,0.05923461914,-0.9907989502,208584.0582,-0.009887784719,0.002144643571,-0.01216505375,208581.2743,0,-1.017293,101.2979,,,
1591401229.37,3.35,85,1591401220,1.301263484,103.835952,17.39661,12.20711708,7000.092435,1591401229,206.1203613,2.559707642,-75.92514038,241.8309479,241.6885071,14.90366936,208584.1356,0.1443328857,0.05960083008,-0.9900054932,208584.0982,-0.01037647482,0.00468609808,-0.00937379431,208581.2743,0,-1.017293,101.2979,,,
1591401229.40,3.38,86,1591401220,1.301263484,103.835952,17.39661,12.20711708,7000.092435,1591401229,206.0115967,2.043640137,-75.94610596,241.8310699,241.6886292,14.90367126,208584.1755,0.1463775635,0.0581817627,-0.9900054932,208584.1381,-0.01087262109,0.005179049447,-0.009836118668,208581.2743,0,-1.017293,101.2979,,,
1591401229.44,3.42,87,1591401220,1.301263484,103.835952,17.39661,12.20711708,7000.092435,1591401229,206.0115967,2.043640137,-75.94610596,241.8310699,241.6886292,14.90367126,208584.2154,0.1466827393,0.05856323242,-0.9890441895,208584.178,-0.009139969014,0.00323680602,-0.009922672063,208581.2743,0,-1.017293,101.2979,,,
1591401229.49,3.47,88,1591401220,1.301263484,103.835952,17.39661,12.20711708,7000.092435,1591401229,205.3967285,2.245864868,-75.9664917,241.8298492,241.6874084,14.90367413,208584.2553,0.147567749,0.05885314941,-0.9886474609,208584.2179,-0.006418750621,0.007236075122,-0.01085397881,208581.2743,0,-1.017293,101.2979,,,
1591401229.52,3.50,89,1591401220,1.301263484,103.835952,17.39661,12.20711708,7000.092435,1591401229,205.3967285,2.245864868,-75.9664917,241.8298492,241.6874084,14.90367413,208584.2952,0.1460723877,0.05844116211,-0.9882659912,208584.2578,-0.005546299275,0.003924700432,-0.008414790034,208581.2743,0,-1.017293,101.2979,,,
1591401229.56,3.54,90,1591401220,1.301263484,103.835952,17.39661,12.20711708,7000.092435,1591401230,205.9659424,2.839050293,-75.80548096,241.8290558,241.686615,14.90367413,208584.3352,0.1469726563,0.0570526123,-0.991394043,208584.2977,-0.008051535115,0.006795321591,-0.007933557034,208581.2743,0,-1.017293,101.2979,,,
1591401229.61,3.59,91,1591401220,1.301263484,103.835952,17.39661,12.20711708,7000.092435,1591401230,206.989624,3.936569214,-75.79278564,241.8292999,241.6868591,14.90367413,208584.3751,0.1461639404,0.05763244629,-0.9897613525,208584.3377,-0.009598565288,0.004845088813,-0.008630239405,208581.2743,0,-1.017293,101.2979,,,
1591401229.64,3.62,92,1591401220,1.301263484,103.835952,17.39661,12.20711708,7000.092435,1591401230,206.989624,3.936569214,-75.79278564,241.8292999,241.6868591,14.90367413,208584.415,0.1467285156,0.05766296387,-0.9911193848,208584.3776,-0.01087768096,0.004877845757,-0.01080471091,208581.2743,0,-1.017293,101.2979,,,
1591401229.68,3.66,93,1591401220,1.301263484,103.835952,17.39661,12.20711708,7000.092435,1591401230,211.0616455,7.463989258,-77.04141235,241.8291779,241.6867371,14.90367317,208584.4549,0.1458282471,0.0576171875,-0.9922180176,208584.4175,-0.009666475467,0.0036429381,-0.009636381641,208581.2743,0,-1.017293,101.2979,,,
1591401229.73,3.71,94,1591401220,1.301263484,103.835952,17.39661,12.20711708,7000.092435,1591401230,216.0731201,9.522613525,-77.68457031,241.8288879,241.6864471,14.90366936,208584.4948,0.1470031738,0.05735778809,-0.9911193848,208584.4574,-0.01087288745,0.003637079149,-0.009473130107,208581.2743,0,-1.017293,101.2979,,,
1591401229.76,3.74,95,1591401220,1.301263484,103.835952,17.39661,12.20711708,7000.092435,1591401230,221.3100586,9.946060181,-78.52017212,241.8305511,241.6881104,14.90366554,208584.5348,0.1459197998,0.0587310791,-0.9908599854,208584.4973,-0.006496781483,0.002933738288,-0.01064705197,208581.2743,0,-1.017293,101.2979,,,
1591401229.80,3.78,96,1591401220,1.301263484,103.835952,17.39661,12.20711708,7000.092435,1591401230,225.2484131,8.816619873,-78.88299561,241.830307,241.6878662,14.90366268,208584.5747,0.1465606689,0.05729675293,-0.9925079346,208584.5373,-0.007335144561,0.007254450582,-0.008619853295,208581.2743,0,-1.017293,101.2979,,,
1591401229.85,3.83,97,1591401220,1.301263484,103.835952,17.39661,12.20711708,7000.092435,1591401230,229.0406494,7.909667969,-79.79684448,241.8314667,241.6890259,14.90365696,208584.6146,0.1470336914,0.05656433105,-0.9921417236,208584.5772,-0.007586280815,0.006424609572,-0.009830259718,208581.2743,0,-1.017293,101.2979,,,
1591401229.88,3.86,98,1591401220,1.301263484,103.835952,17.39661,12.20711708,7000.092435,1591401230,229.0406494,7.909667969,-79.79684448,241.8314667,241.6890259,14.90365696,208584.6545,0.1474151611,0.05816650391,-0.990447998,208584.6171,-0.009133843705,0.006417419296,-0.008107993752,208581.2743,0,-1.017293,101.2979,,,
1591401229.92,3.90,99,1591401220,1.301263484,103.835952,17.39661,12.20711708,7000.092435,1591401230,232.2775879,6.06803894,-80.03924561,241.8306274,241.6881866,14.90365219,208584.6944,0.147567749,0.0581817627,-0.9901885986,208584.657,-0.01090244856,0.007760717534,-0.01014850754,208582.2322,0,-1.10449,101.299,,,
1591401229.97,3.95,100,1591401220,1.301263484,103.835952,17.39661,12.20711708,7000.092435,1591401230,235.0205078,5.118164063,-80.52203369,241.8295898,241.687149,14.90364838,208584.7343,0.1466369629,0.05801391602,-0.9896697998,208584.6969,-0.009803628549,0.002931874013,-0.01051176339,208582.2322,0,-1.10449,101.299,,,
1591401230.00,3.97,101,1591401220,1.301263484,103.835952,17.39661,12.20711708,7000.092435,1591401230,236.748291,3.947845459,-80.8866272,241.8310394,241.6885986,14.90364552,208584.7743,0.1452789307,0.05847167969,-0.9895172119,208584.7368,-0.008584965952,0.005842176266,-0.009103749879,208582.2322,0,-1.10449,101.299,,,
1591401230.04,4.01,102,1591401220,1.301263484,103.835952,17.39661,12.20711708,7000.092435,1591401230,236.748291,3.947845459,-80.8866272,241.8310394,241.6885986,14.90364552,208584.8142,0.1463012695,0.05888366699,-0.9900970459,208584.7768,-0.01080550998,0.00503310794,-0.008200138807,208582.2322,0,-1.10449,101.299,,,
1591401230.09,4.07,103,1591401220,1.301263484,103.835952,17.39661,12.20711708,7000.092435,1591401230,239.0935059,1.073654175,-80.98150635,241.8302765,241.6878357,14.90363693,208584.8541,0.1459350586,0.0576171875,-0.9889373779,208584.8167,-0.007574562915,0.006431267597,-0.01121297292,208582.2322,0,-1.10449,101.299,,,
1591401230.12,4.09,104,1591401220,1.301263484,103.835952,17.39661,12.20711708,7000.092435,1591401230,239.0935059,1.073654175,-80.98150635,241.8302765,241.6878357,14.90363693,208584.894,0.145614624,0.05767822266,-0.9891357422,208584.8566,-0.008235825226,0.007612379733,-0.008250473067,208582.2322,0,-1.10449,101.299,,,
1591401230.16,4.13,105,1591401220,1.301263484,103.835952,17.39661,12.20711708,7000.092435,1591401230,239.7601318,-0.7104492188,-81.21127319,241.8276825,241.6852417,14.90363312,208584.9339,0.1461029053,0.05746459961,-0.9889984131,208584.8965,-0.005437642336,0.007496798411,-0.008394815959,208582.2322,0,-1.10449,101.299,,,
1591401230.21,4.19,106,1591401220,1.301263484,103.835952,17.39661,12.20711708,7000.092435,1591401230,239.385498,-2.405532837,-80.92068481,241.8259125,241.6834717,14.90363026,208584.9738,0.1469421387,0.05760192871,-0.988571167,208584.9364,-0.01040656865,0.008088286035,-0.007600129116,208582.2322,0,-1.10449,101.299,,,
1591401230.24,4.21,107,1591401220,1.301263484,103.835952,17.39661,12.20711708,7000.092435,1591401230,239.385498,-2.405532837,-80.92068481,241.8259125,241.6834717,14.90363026,208585.0138,0.146270752,0.05668640137,-0.9894561768,208584.9763,-0.009157279506,0.006379868835,-0.009233712219,208582.2322,0,-1.10449,101.299,,,
1591401230.28,4.25,108,1591401220,1.301263484,103.835952,17.39661,12.20711708,7000.092435,1591401230,238.7346191,-3.815658569,-80.67877197,241.8269501,241.6845093,14.90362644,208585.0537,0.1469421387,0.056640625,-0.9896850586,208585.0163,-0.007000651676,0.002452771412,-0.01056262944,208582.2322,0,-1.10449,101.299,,,
1591401230.33,4.31,109,1591401220,1.301263484,103.835952,17.39661,12.20711708,7000.092435,1591401230,238.1335449,-4.425384521,-80.40820313,241.8273926,241.6849518,14.90362358,208585.0936,0.1469726563,0.05712890625,-0.9913635254,208585.0562,-0.007705590222,0.001055943314,-0.008998022415,208582.2322,0,-1.10449,101.299,,,
1591401230.36,4.33,110,1591401220,1.301263484,103.835952,17.39661,12.20711708,7000.092435,1591401230,237.0415039,-5.081253052,-80.29492188,241.8274384,241.6849976,14.90361977,208585.1335,0.1470489502,0.05780029297,-0.9920501709,208585.0961,-0.008676312864,0.009169263765,-0.00937379431,208582.2322,0,-1.10449,101.299,,,
1591401230.40,4.37,111,1591401220,1.301263484,103.835952,17.39661,12.20711708,7000.092435,1591401230,235.8540039,-5.602294922,-80.37368774,241.8286743,241.6862335,14.90361786,208585.1734,0.1466217041,0.05805969238,-0.9923858643,208585.136,-0.008051002398,0.005081311334,-0.009650230408,208582.2322,0,-1.10449,101.299,,,
1591401230.45,4.43,112,1591401220,1.301263484,103.835952,17.39661,12.20711708,7000.092435,1591401230,235.0119629,-5.587127686,-80.19900513,241.8292694,241.6868286,14.90361309,208585.2134,0.1462402344,0.0590057373,-0.9914398193,208585.1759,-0.007636614144,0.008127967827,-0.01064279024,208582.2322,0,-1.10449,101.299,,,
1591401230.48,4.45,113,1591401220,1.301263484,103.835952,17.39661,12.20711708,7000.092435,1591401230,235.0119629,-5.587127686,-80.19900513,241.8292694,241.6868286,14.90361309,208585.2533,0.1454467773,0.05784606934,-0.9911346436,208585.2159,-0.01010003872,0.005126052536,-0.00841106195,208582.2322,0,-1.10449,101.299,,,
1591401230.52,4.49,114,1591401220,1.301263484,103.835952,17.39661,12.20711708,7000.092435,1591401230,234.5822754,-4.936172485,-80.65988159,241.8289948,241.686554,14.90360928,208585.2932,0.1458435059,0.05841064453,-0.9903106689,208585.2558,-0.006876281928,0.0026996464,-0.008290686645,208582.2322,0,-1.10449,101.299,,,
1591401230.57,4.55,115,1591401220,1.301263484,103.835952,17.39661,12.20711708,7000.092435,1591401231,235.6541748,-3.607543945,-81.25299072,241.8298798,241.687439,14.90360451,208585.3331,0.1460876465,0.0591583252,-0.9901885986,208585.2957,-0.006383330561,0.004891161807,-0.009412676096,208582.2322,0,-1.10449,101.299,,,
1591401230.60,4.57,116,1591401220,1.301263484,103.835952,17.39661,12.20711708,7000.092435,1591401231,236.0245361,-3.701080322,-81.6427002,241.8307953,241.6883545,14.90359783,208585.373,0.1464385986,0.05874633789,-0.9901885986,208585.3356,-0.01009204891,0.002920156112,-0.009909089655,208582.2322,0,-1.10449,101.299,,,
1591401230.64,4.61,117,1591401220,1.301263484,103.835952,17.39661,12.20711708,7000.092435,1591401231,236.0245361,-3.701080322,-81.6427002,241.8307953,241.6883545,14.90359783,208585.4129,0.1466827393,0.05819702148,-0.9903106689,208585.3755,-0.01091336738,0.004267715383,-0.01017567236,208582.2322,0,-1.10449,101.299,,,
1591401230.69,4.67,118,1591401220,1.301263484,103.835952,17.39661,12.20711708,7000.092435,1591401231,235.0421143,-4.566848755,-82.22528076,241.8274078,241.684967,14.90358543,208585.4529,0.1468353271,0.05827331543,-0.9906921387,208585.4554,-0.0096675409,0.00791491475,-0.01011974551,208582.2322,0,-1.10449,101.299,,,
1591401230.72,4.69,119,1591401220,1.301263484,103.835952,17.39661,12.20711708,7000.092435,1591401231,235.0421143,-4.566848755,-82.22528076,241.8274078,241.684967,14.90358543,208585.4928,0.1453552246,0.05952453613,-0.991394043,208585.4554,-0.0096675409,0.00791491475,-0.01011974551,208582.2322,0,-1.10449,101.299,,,
1591401230.76,4.73,120,1591401220,1.301263484,103.835952,17.39661,12.20711708,7000.092435,1591401231,234.3237305,-4.83555603,-82.27304077,241.8297882,241.6873474,14.90357876,208585.5327,0.144821167,0.05836486816,-0.9904022217,208585.4953,-0.007932757959,0.00802277308,-0.01073413715,208582.2322,0,-1.10449,101.299,,,
1591401230.81,4.79,121,1591401220,1.301263484,103.835952,17.39661,12.20711708,7000.092435,1591401231,233.4483643,-5.313156128,-82.31869507,241.8290253,241.6865845,14.90357208,208585.5726,0.1450500488,0.05732727051,-0.9894866943,208585.5352,-0.009297361597,0.009226521477,-0.01026808377,208582.2322,0,-1.10449,101.299,,,
1591401230.84,4.81,122,1591401220,1.301263484,103.835952,17.39661,12.20711708,7000.092435,1591401231,233.4483643,-5.313156128,-82.31869507,241.8290253,241.6865845,14.90357208,208585.6125,0.145904541,0.05828857422,-0.9900360107,208585.5751,-0.009986321442,0.008194546215,-0.01186491549,208582.2322,0,-1.10449,101.299,,,
1591401230.87,4.85,123,1591401220,1.301263484,103.835952,17.39661,12.20711708,7000.092435,1591401231,230.5007324,-7.325241089,-81.85971069,241.8290253,241.6865845,14.90356541,208585.6524,0.1462860107,0.05682373047,-0.989364624,208585.615,-0.009857424535,0.00920681376,-0.009171660058,208583.1901,0,-1.189044,101.3,,,
1591401230.93,4.91,124,1591401220,1.301263484,103.835952,17.39661,12.20711708,7000.092435,1591401231,223.4324951,-12.0422821,-80.78555298,241.8303833,241.6879425,14.90355873,208585.6924,0.146194458,0.05799865723,-0.9909210205,208585.6549,-0.008261125535,0.002575276652,-0.01140072662,208583.1901,0,-1.189044,101.3,,,
1591401230.95,4.93,125,1591401220,1.301263484,103.835952,17.39661,12.20711708,7000.092435,1591401231,216.3419189,-13.6815033,-79.57687378,241.8293915,241.6869507,14.9035511,208585.7323,0.1476135254,0.05786132813,-0.9905700684,208585.6949,-0.0108744856,0.007262706757,-0.009860087186,208583.1901,0,-1.189044,101.3,,,
1591401230.99,4.97,126,1591401220,1.301263484,103.835952,17.39661,12.20711708,7000.092435,1591401231,211.0478516,-12.71046448,-78.97488403,241.8290253,241.6865845,14.90354443,208585.7722,0.1471099854,0.05744934082,-0.9903411865,208585.7348,-0.01274908427,0.004283161834,-0.008352472447,208583.1901,0,-1.189044,101.3,,,
1591401231.05,5.03,127,1591401220,1.301263484,103.835952,17.39661,12.20711708,7000.092435,1591401231,207.3265381,-10.09190369,-78.41040039,241.8273163,241.6848755,14.90353775,208585.8121,0.1460876465,0.05871582031,-0.991394043,208585.7747,-0.008008391596,0.006848584861,-0.008878179826,208583.1901,0,-1.189044,101.3,,,
1591401231.07,5.05,128,1591401220,1.301263484,103.835952,17.39661,12.20711708,7000.092435,1591401231,207.3265381,-10.09190369,-78.41040039,241.8273163,241.6848755,14.90353775,208585.852,0.1461486816,0.05795288086,-0.9915771484,208585.8146,-0.008225439116,0.003657851834,-0.01165372692,208583.1901,0,-1.189044,101.3,,,
1591401231.11,5.09,129,1591401220,1.301263484,103.835952,17.39661,12.20711708,7000.092435,1591401231,205.4222412,-7.413833618,-78.24215698,241.8271027,241.6846619,14.90353107,208585.892,0.146270752,0.05850219727,-0.9907073975,208585.8545,-0.008829976432,0.005934854504,-0.01042121556,208583.1901,0,-1.189044,101.3,,,
1591401231.17,5.15,130,1591401220,1.301263484,103.835952,17.39661,12.20711708,7000.092435,1591401231,203.7382813,-5.04309082,-78.12802124,241.8272247,241.6847839,14.9035244,208585.9319,0.145904541,0.05912780762,-0.9912261963,208585.8945,-0.008112520911,0.006524478085,-0.009456885047,208583.1901,0,-1.189044,101.3,,,
1591401231.19,5.17,131,1591401220,1.301263484,103.835952,17.39661,12.20711708,7000.092435,1591401231,202.0974121,-3.650299072,-78.05184937,241.8255463,241.6831055,14.90351772,208585.9718,0.1469726563,0.05894470215,-0.9910583496,208585.9344,-0.007833954878,0.005012335256,-0.01108274516,208583.1901,0,-1.189044,101.3,,,
1591401231.23,5.21,132,1591401220,1.301263484,103.835952,17.39661,12.20711708,7000.092435,1591401231,202.0974121,-3.650299072,-78.05184937,241.8255463,241.6831055,14.90351772,208586.0117,0.1477508545,0.05899047852,-0.9897003174,208585.9743,-0.008710134774,0.004593953025,-0.008724248968,208583.1901,0,-1.189044,101.3,,,
1591401231.29,5.27,133,1591401220,1.301263484,103.835952,17.39661,12.20711708,7000.092435,1591401231,200.4519043,-0.9724884033,-77.66143799,241.8243866,241.6819458,14.90350533,208586.0516,0.1466217041,0.05952453613,-0.9907989502,208586.0142,-0.009511746466,0.0105937887,-0.008403338492,208583.1901,0,-1.189044,101.3,,,
1591401231.31,5.29,134,1591401220,1.301263484,103.835952,17.39661,12.20711708,7000.092435,1591401231,200.4519043,-0.9724884033,-77.66143799,241.8243866,241.6819458,14.90350533,208586.0915,0.1471099854,0.05885314941,-0.9891815186,208586.0541,-0.009152752347,0.006652576383,-0.008862201124,208583.1901,0,-1.189044,101.3,,,
1591401231.35,5.33,135,1591401220,1.301263484,103.835952,17.39661,12.20711708,7000.092435,1591401231,199.71875,-0.556137085,-77.75643921,241.8240204,241.6815796,14.90350056,208586.1315,0.1469573975,0.05754089355,-0.9889373779,208586.094,-0.008561263792,0.004653873853,-0.008392419666,208583.1901,0,-1.189044,101.3,,,
1591401231.41,5.39,136,1591401220,1.301263484,103.835952,17.39661,12.20711708,7000.092435,1591401231,199.5750732,1.140106201,-77.42349243,241.8234711,241.6810303,14.90349388,208586.1714,0.147354126,0.05813598633,-0.9900970459,208586.134,-0.007990282029,0.005776662845,-0.009598831646,208583.1901,0,-1.189044,101.3,,,
1591401231.43,5.41,137,1591401220,1.301263484,103.835952,17.39661,12.20711708,7000.092435,1591401231,199.5750732,1.140106201,-77.42349243,241.8234711,241.6810303,14.90349388,208586.2113,0.1467285156,0.0577545166,-0.9902038574,208586.1739,-0.007241401356,0.006211290602,-0.01115012262,208583.1901,0,-1.189044,101.3,,,
1591401231.47,5.45,138,1591401220,1.301263484,103.835952,17.39661,12.20711708,7000.092435,1591401231,199.2556152,2.164001465,-77.30422974,241.8236847,241.6812439,14.90348816,208586.2512,0.1455993652,0.0576171875,-0.9891815186,208586.2138,-0.008714661933,0.006397977937,-0.007498928811,208583.1901,0,-1.189044,101.3,,,
1591401231.51,5.49,139,1591401220,1.301263484,103.835952,17.39661,12.20711708,7000.092435,1591401231,201.005127,4.535903931,-77.19470215,241.8241272,241.6816864,14.90348339,208586.2911,0.1473693848,0.05773925781,-0.9895629883,208586.2537,-0.007746602874,-0.0001816275908,-0.009139436297,208583.1901,0,-1.189044,101.3,,,
1591401231.55,5.53,140,1591401220,1.301263484,103.835952,17.39661,12.20711708,7000.092435,1591401232,204.8875732,7.846450806,-77.55001831,241.8247833,241.6823425,14.90347672,208586.3311,0.1465911865,0.05780029297,-0.9885101318,208586.2936,-0.006987601984,0.004740693141,-0.01062015351,208583.1901,0,-1.189044,101.3,,,
1591401231.59,5.57,141,1591401220,1.301263484,103.835952,17.39661,12.20711708,7000.092435,1591401232,210.9494629,11.26074219,-78.05859375,241.8263092,241.6838684,14.90347099,208586.371,0.1463623047,0.05763244629,-0.9914398193,208586.3336,-0.007758853491,0.001808819012,-0.007674431428,208583.1901,0,-1.189044,101.3,,,
1591401231.63,5.61,142,1591401220,1.301263484,103.835952,17.39661,12.20711708,7000.092435,1591401232,210.9494629,11.26074219,-78.05859375,241.8263092,241.6838684,14.90347099,208586.4109,0.146697998,0.05688476563,-0.9900512695,208586.3735,-0.008881908841,0.004351072479,-0.008471248671,208583.1901,0,-1.189044,101.3,,,
1591401231.67,5.65,143,1591401220,1.301263484,103.835952,17.39661,12.20711708,7000.092435,1591401232,216.1154785,11.7623291,-79.16415405,241.8245392,241.6820984,14.90346622,208586.4508,0.1476135254,0.05738830566,-0.9904174805,208586.4134,-0.01035277266,0.001925998135,-0.01065717172,208583.1901,0,-1.189044,101.3,,,
1591401231.71,5.69,144,1591401220,1.301263484,103.835952,17.39661,12.20711708,7000.092435,1591401232,221.6733398,11.93518066,-79.67913818,241.8235321,241.6810913,14.90346146,208586.4907,0.1458282471,0.05744934082,-0.9917144775,208586.4533,-0.007068295963,0.008062720299,-0.01057434734,208583.1901,0,-1.189044,101.3,,,
1591401231.75,5.73,145,1591401220,1.301263484,103.835952,17.39661,12.20711708,7000.092435,1591401232,225.4797363,9.736038208,-79.72714233,241.8235626,241.6811218,14.90345573,208586.5306,0.1473083496,0.05935668945,-0.9914245605,208586.4932,-0.00790452864,0.004609665368,-0.008977249265,208583.1901,0,-1.189044,101.3,,,
1591401231.79,5.77,146,1591401220,1.301263484,103.835952,17.39661,12.20711708,7000.092435,1591401232,227.6943359,7.117431641,-80.00891113,241.8223114,241.6798706,14.90345097,208586.5706,0.1458129883,0.05940246582,-0.9916229248,208586.5331,-0.01014078502,0.004607002251,-0.01037807204,208583.1901,0,-1.189044,101.3,,,
1591401231.83,5.81,147,1591401220,1.301263484,103.835952,17.39661,12.20711708,7000.092435,1591401232,227.6943359,7.117431641,-80.00891113,241.8223114,241.6798706,14.90345097,208586.6105,0.1462402344,0.0590057373,-0.9903717041,208586.5731,-0.00706510013,0.006807572208,-0.009652094916,208584.148,0,-1.199613,101.3001,,,
1591401231.87,5.85,148,1591401220,1.301263484,103.835952,17.39661,12.20711708,7000.092435,1591401232,228.1251221,4.058853149,-80.02252197,241.8226929,241.6802521,14.90344524,208586.6504,0.1461486816,0.05867004395,-0.9895477295,208586.613,-0.008489890955,0.000384560466,-0.007750597782,208584.148,0,-1.199613,101.3001,,,
1591401231.91,5.89,149,1591401220,1.301263484,103.835952,17.39661,12.20711708,7000.092435,1591401232,228.2384033,2.239395142,-79.88882446,241.8202362,241.6777954,14.90344238,208586.6903,0.1458892822,0.05877685547,-0.9905090332,208586.6529,-0.008443019353,0.005215800833,-0.008240353316,208584.148,0,-1.199613,101.3001,,,
1591401231.95,5.93,150,1591401220,1.301263484,103.835952,17.39661,12.20711708,7000.092435,1591401232,229.1191406,1.480911255,-79.79855347,241.8205109,241.6780701,14.90343666,208586.7302,0.1469421387,0.05726623535,-0.9889221191,208586.6928,-0.009484581649,0.003827228677,-0.01050377358,208584.148,0,-1.199613,101.3001,,,
1591401231.99,5.97,151,1591401220,1.301263484,103.835952,17.39661,12.20711708,7000.092435,1591401232,228.855957,0.7064666748,-79.72497559,241.8199615,241.6775208,14.90343189,208586.7701,0.1465148926,0.05760192871,-0.989654541,208586.7327,-0.009752762504,0.004292482976,-0.01026515476,208584.148,0,-1.199613,101.3001,,,
1591401232.03,6.01,152,1591401220,1.301263484,103.835952,17.39661,12.20711708,7000.092435,1591401232,228.855957,0.7064666748,-79.72497559,241.8199615,241.6775208,14.90343189,208586.8101,0.1469421387,0.05796813965,-0.9890899658,208586.7726,-0.009017730132,0.004190217704,-0.009111739695,208584.148,0,-1.199613,101.3001,,,
1591401232.07,6.05,153,1591401220,1.301263484,103.835952,17.39661,12.20711708,7000.092435,1591401232,228.8669434,-0.795715332,-79.6300354,241.8185577,241.6761169,14.90342808,208586.85,0.1466064453,0.05757141113,-0.9888458252,208586.8126,-0.008596417494,0.009662481025,-0.008767658845,208584.148,0,-1.199613,101.3001,,,
1591401232.11,6.09,154,1591401220,1.301263484,103.835952,17.39661,12.20711708,7000.092435,1591401232,229.3797607,-0.4898071289,-79.31069946,241.817276,241.6748352,14.90342331,208586.8899,0.1463165283,0.0573425293,-0.9906311035,208586.8525,-0.007854993455,0.005801163614,-0.007837949321,208584.148,0,-1.199613,101.3001,,,
1591401232.15,6.13,155,1591401220,1.301263484,103.835952,17.39661,12.20711708,7000.092435,1591401232,229.8966064,-0.8396759033,-79.54470825,241.8183289,241.6758881,14.90342045,208586.9298,0.1453094482,0.0570526123,-0.9897766113,208586.8924,-0.009973804466,0.004989432171,-0.01021721773,208584.148,0,-1.199613,101.3001,,,
1591401232.19,6.17,156,1591401220,1.301263484,103.835952,17.39661,12.20711708,7000.092435,1591401232,230.3875732,-0.7132873535,-79.64086914,241.8176422,241.6752014,14.90341473,208586.9697,0.1451873779,0.05758666992,-0.9897003174,208586.9323,-0.006265352946,0.005828327965,-0.01103161182,208584.148,0,-1.199613,101.3001,,,
1591401232.23,6.21,157,1591401220,1.301263484,103.835952,17.39661,12.20711708,7000.092435,1591401232,231.0834961,-0.4051818848,-79.76434326,241.8182373,241.6757965,14.90340996,208587.0097,0.1460113525,0.05813598633,-0.9900665283,208586.9722,-0.008466721512,0.00300431205,-0.008737831376,208584.148,0,-1.199613,101.3001,,,
1591401232.27,6.25,158,1591401220,1.301263484,103.835952,17.39661,12.20711708,7000.092435,1591401232,231.0834961,-0.4051818848,-79.76434326,241.8182373,241.6757965,14.90340996,208587.0496,0.1450958252,0.05725097656,-0.9920196533,208587.0122,-0.008210792206,0.005996107124,-0.007295197342,208584.148,0,-1.199613,101.3001,,,
1591401232.31,6.29,159,1591401220,1.301263484,103.835952,17.39661,12.20711708,7000.092435,1591401232,231.8099365,-0.7847747803,-79.72573853,241.8192902,241.6768494,14.90340424,208587.0895,0.1463470459,0.05772399902,-0.9907531738,208587.0521,-0.008788697422,0.005467203446,-0.009317069314,208584.148,0,-1.199613,101.3001,,,
1591401232.35,6.33,160,1591401220,1.301263484,103.835952,17.39661,12.20711708,7000.092435,1591401232,231.5997314,-1.755889893,-79.77877808,241.8177032,241.6752625,14.90339947,208587.1294,0.1473693848,0.05825805664,-0.9916687012,208587.092,-0.008897887543,0.004856806714,-0.009961021133,208584.148,0,-1.199613,101.3001,,,
1591401232.39,6.37,161,1591401220,1.301263484,103.835952,17.39661,12.20711708,7000.092435,1591401232,231.3109131,-2.070648193,-79.53408813,241.8173676,241.6749268,14.9033947,208587.1693,0.1468353271,0.05796813965,-0.9915924072,208587.1319,-0.01018206403,0.005653092172,-0.008259527385,208584.148,0,-1.199613,101.3001,,,
1591401232.43,6.41,162,1591401220,1.301263484,103.835952,17.39661,12.20711708,7000.092435,1591401232,230.6239014,-2.828338623,-79.60931396,241.8154755,241.6730347,14.90338898,208587.2092,0.1466827393,0.05857849121,-0.9923248291,208587.1718,-0.01044598315,0.00531673478,-0.007638212293,208584.148,0,-1.199613,101.3001,,,
1591401232.47,6.45,163,1591401220,1.301263484,103.835952,17.39661,12.20711708,7000.092435,1591401232,230.6239014,-2.828338623,-79.60931396,241.8154755,241.6730347,14.90338898,208587.2492,0.1468811035,0.0590057373,-0.9921569824,208587.2117,-0.00700970646,0.005455751903,-0.008366852999,208584.148,0,-1.199613,101.3001,,,
1591401232.51,6.49,164,1591401220,1.301263484,103.835952,17.39661,12.20711708,7000.092435,1591401232,230.2648926,-2.751922607,-79.30551147,241.8153687,241.6729279,14.9033823,208587.2891,0.1463928223,0.05947875977,-0.9920349121,208587.2517,-0.008206796832,0.007393201347,-0.00890268106,208584.148,0,-1.199613,101.3001,,,
1591401232.55,6.53,165,1591401220,1.301263484,103.835952,17.39661,12.20711708,7000.092435,1591401233,229.8547363,-3.484695435,-79.28338623,241.8156891,241.6732483,14.90337753,208587.329,0.1464233398,0.05899047852,-0.9915313721,208587.2916,-0.008337824605,0.004347078037,-0.009990848601,208584.148,0,-1.199613,101.3001,,,
1591401232.59,6.57,166,1591401220,1.301263484,103.835952,17.39661,12.20711708,7000.092435,1591401233,223.9785156,-9.005325317,-78.67843628,241.8174286,241.6749878,14.90337086,208587.3689,0.1452941895,0.05877685547,-0.9899902344,208587.3315,-0.007945807651,0.004089816473,-0.008193748072,208584.148,0,-1.199613,101.3001,,,
1591401232.63,6.61,167,1591401220,1.301263484,103.835952,17.39661,12.20711708,7000.092435,1591401233,223.9785156,-9.005325317,-78.67843628,241.8174286,241.6749878,14.90337086,208587.4088,0.1461181641,0.05796813965,-0.9923706055,208587.3714,-0.008682703599,0.007453655358,-0.007541006897,208584.148,0,-1.199613,101.3001,,,
1591401232.67,6.65,168,1591401220,1.301263484,103.835952,17.39661,12.20711708,7000.092435,1591401233,217.5140381,-12.21435547,-77.10531616,241.8176422,241.6752014,14.90336514,208587.4487,0.147064209,0.05798339844,-0.9885101318,208587.4113,-0.008302404545,0.001910818042,-0.01151391026,208584.148,0,-1.199613,101.3001,,,
1591401232.71,6.69,169,1591401220,1.301263484,103.835952,17.39661,12.20711708,7000.092435,1591401233,209.3929443,-13.98617554,-76.03128052,241.8163605,241.6739197,14.90335846,208587.4887,0.1480407715,0.05703735352,-0.9876556396,208587.4512,-0.008037153631,0.007341003511,-0.00854235515,208584.148,0,-1.199613,101.3001,,,
1591401232.75,6.73,170,1591401220,1.301263484,103.835952,17.39661,12.20711708,7000.092435,1591401233,205.0566406,-10.7756958,-75.41390991,241.8151703,241.6727295,14.90335178,208587.5286,0.1468658447,0.05731201172,-0.9907226563,208587.4912,-0.008867261,0.004496747628,-0.006469350774,208584.148,0,-1.199613,101.3001,,,
1591401232.79,6.77,171,1591401220,1.301263484,103.835952,17.39661,12.20711708,7000.092435,1591401233,201.5465088,-8.783035278,-74.75244141,241.8143158,241.671875,14.90334511,208587.5685,0.1472015381,0.05686950684,-0.9882202148,208587.5311,-0.006859237794,0.004169445019,-0.00962040294,208585.106,0,-1.220752,101.3004,,,
1591401232.83,6.81,172,1591401220,1.301263484,103.835952,17.39661,12.20711708,7000.092435,1591401233,201.5465088,-8.783035278,-74.75244141,241.8143158,241.671875,14.90334511,208587.6084,0.1460571289,0.0577545166,-0.9911651611,208587.571,-0.008880843408,0.005454952829,-0.009902964346,208585.106,0,-1.220752,101.3004,,,
1591401232.87,6.85,173,1591401220,1.301263484,103.835952,17.39661,12.20711708,7000.092435,1591401233,198.5841064,-6.805725098,-74.40667725,241.8139801,241.6715393,14.90333843,208587.6483,0.1466064453,0.05624389648,-0.9886627197,208587.6109,-0.01008352637,0.00273027271,-0.006750580855,208585.106,0,-1.220752,101.3004,,,
1591401232.91,6.89,174,1591401220,1.301263484,103.835952,17.39661,12.20711708,7000.092435,1591401233,197.1462402,-3.851776123,-74.28503418,241.8130951,241.6706543,14.9033308,208587.6883,0.1453399658,0.05693054199,-0.991607666,208587.6508,-0.0114686368,0.00466985302,-0.007251254749,208585.106,0,-1.220752,101.3004,,,
1591401232.95,6.93,175,1591401220,1.301263484,103.835952,17.39661,12.20711708,7000.092435,1591401233,196.8638916,-1.273223877,-74.18099976,241.8139496,241.6715088,14.90332413,208587.7282,0.1467590332,0.05725097656,-0.9897460938,208587.6908,-0.009392170236,0.003465305082,-0.008593222126,208585.106,0,-1.220752,101.3004,,,
1591401232.99,6.97,176,1591401220,1.301263484,103.835952,17.39661,12.20711708,7000.092435,1591401233,196.1903076,-0.3743286133,-74.28747559,241.8132172,241.6707764,14.90331745,208587.7681,0.1483459473,0.05746459961,-0.99269104,208587.7307,-0.009305085056,0.004259193316,-0.008802546188,208585.106,0,-1.220752,101.3004,,,
1591401233.03,7.01,177,1591401220,1.301263484,103.835952,17.39661,12.20711708,7000.092435,1591401233,196.1903076,-0.3743286133,-74.28747559,241.8132172,241.6707764,14.90331745,208587.808,0.1470947266,0.05926513672,-0.9878234863,208587.7706,-0.009145827964,0.004034156445,-0.00913304463,208585.106,0,-1.220752,101.3004,,,
1591401233.07,7.05,178,1591401220,1.301263484,103.835952,17.39661,12.20711708,7000.092435,1591401233,195.6116943,0.6946868896,-73.90029907,241.8147278,241.672287,14.90331078,208587.8479,0.1463012695,0.05996704102,-0.9903411865,208587.8105,-0.007784419693,0.008413458243,-0.0110984575,208585.106,0,-1.220752,101.3004,,,
1591401233.11,7.09,179,1591401220,1.301263484,103.835952,17.39661,12.20711708,7000.092435,1591401233,195.3552246,1.268737793,-73.7862854,241.8119049,241.6694641,14.9033041,208587.8878,0.1465148926,0.05880737305,-0.9917755127,208587.8504,-0.01017300878,0.006811300758,-0.007543403655,208585.106,0,-1.220752,101.3004,,,
1591401233.15,7.13,180,1591401220,1.301263484,103.835952,17.39661,12.20711708,7000.092435,1591401233,195.0300293,1.778579712,-74.00042725,241.8121338,241.669693,14.90329742,208587.9278,0.1482696533,0.05714416504,-0.9896850586,208587.8903,-0.005910086911,0.003318032483,-0.007967645302,208585.106,0,-1.220752,101.3004,,,
1591401233.19,7.17,181,1591401220,1.301263484,103.835952,17.39661,12.20711708,7000.092435,1591401233,195.2629395,2.808349609,-74.00299072,241.8126678,241.6702271,14.90328979,208587.9677,0.1463317871,0.05609130859,-0.992477417,208587.9303,-0.006714095362,0.006684267893,-0.009254218079,208585.106,0,-1.220752,101.3004,,,
1591401233.23,7.21,182,1591401220,1.301263484,103.835952,17.39661,12.20711708,7000.092435,1591401233,195.2629395,2.808349609,-74.00299072,241.8126678,241.6702271,14.90328979,208588.0076,0.1459350586,0.0597076416,-0.9885406494,208587.9702,-0.008496815339,0.003044525627,-0.006009955425,208585.106,0,-1.220752,101.3004,,,
1591401233.27,7.25,183,1591401220,1.301263484,103.835952,17.39661,12.20711708,7000.092435,1591401233,194.7022705,2.674560547,-74.1784668,241.8128204,241.6703796,14.90328217,208588.0475,0.1455078125,0.05316162109,-0.9936676025,208588.0101,-0.009721336886,0.008713862859,-0.009217467159,208585.106,0,-1.220752,101.3004,,,
1591401233.31,7.29,184,1591401220,1.301263484,103.835952,17.39661,12.20711708,7000.092435,1591401233,194.869873,3.178100586,-73.81774902,241.8132782,241.6708374,14.90327454,208588.0874,0.1497344971,0.04014587402,-0.9948883057,208588.05,-0.003752127523,0.006283728406,-0.01049631648,208585.106,0,-1.220752,101.3004,,,
1591401233.35,7.33,185,1591401220,1.301263484,103.835952,17.39661,12.20711708,7000.092435,1591401233,195.1291504,3.494369507,-73.80081177,241.8150787,241.6726379,14.90326595,208588.1273,0.1467132568,0.03277587891,-0.9980316162,208588.0899,-0.007399859373,0.009510681033,-0.01192723308,208585.106,0,-1.220752,101.3004,,,
1591401233.39,7.37,186,1591401220,1.301263484,103.835952,17.39661,12.20711708,7000.092435,1591401233,195.2803955,3.669418335,-73.71289063,241.8160858,241.673645,14.90325928,208588.1673,0.1505279541,0.02603149414,-0.9998931885,208588.1298,-0.006529272068,0.00585123105,-0.00907844957,208585.106,0,-1.220752,101.3004,,,
1591401233.43,7.41,187,1591401220,1.301263484,103.835952,17.39661,12.20711708,7000.092435,1591401233,195.2803955,3.669418335,-73.71289063,241.8160858,241.673645,14.90325928,208588.2072,0.1505432129,0.006607055664,-0.9986877441,208588.1698,-0.00620196946,0.003963049967,-0.009473396465,208585.106,0,-1.220752,101.3004,,,
1591401233.47,7.45,188,1591401220,1.301263484,103.835952,17.39661,12.20711708,7000.092435,1591401233,195.3405762,4.063217163,-73.73764038,241.8169403,241.6744995,14.9032526,208588.2471,0.1502227783,-0.004577636719,-0.9996490479,208588.2097,-0.007838215679,0.001855424372,-0.009310411289,208585.106,0,-1.220752,101.3004,,,
1591401233.51,7.49,189,1591401220,1.301263484,103.835952,17.39661,12.20711708,7000.092435,1591401233,196.3189697,4.515853882,-73.66830444,241.8157196,241.6732788,14.90324593,208588.287,0.1500396729,-0.005310058594,-0.9962005615,208588.2496,-0.005962817464,0.00288979616,-0.007075219881,208585.106,0,-1.220752,101.3004,,,
1591401233.55,7.53,190,1591401220,1.301263484,103.835952,17.39661,12.20711708,7000.092435,1591401234,196.5330811,4.698440552,-73.96200562,241.814743,241.6723022,14.90323925,208588.3269,0.1505584717,-0.01391601563,-0.9910583496,208588.2895,-0.005528189708,0.001752892626,-0.008954079822,208585.106,0,-1.220752,101.3004,,,
1591401233.59,7.57,191,1591401220,1.301263484,103.835952,17.39661,12.20711708,7000.092435,1591401234,197.0170898,3.952163696,-74.15737915,241.812027,241.6695862,14.90323257,208588.3669,0.1483459473,-0.01753234863,-0.9880828857,208588.3294,-0.007816910744,0.005641107913,-0.007839014754,208585.106,0,-1.220752,101.3004,,,
1591401233.63,7.61,192,1591401220,1.301263484,103.835952,17.39661,12.20711708,7000.092435,1591401234,197.7663574,4.016738892,-73.91247559,241.8087463,241.6663055,14.90322495,208588.4068,0.1496276855,-0.01271057129,-0.9880523682,208588.3694,-0.004787298385,0.004743622616,-0.01091177016,208585.106,0,-1.220752,101.3004,,,
1591401233.67,7.65,193,1591401220,1.301263484,103.835952,17.39661,12.20711708,7000.092435,1591401234,197.7663574,4.016738892,-73.91247559,241.8087463,241.6663055,14.90322495,208588.4467,0.1484375,-0.0158996582,-0.9844818115,208588.4093,-0.007343932986,0.00770372618,-0.008261125535,208585.106,0,-1.220752,101.3004,,,
1591401233.71,7.69,194,1591401220,1.301263484,103.835952,17.39661,12.20711708,7000.092435,1591401234,198.9508057,3.985473633,-73.9593811,241.8081207,241.6656799,14.90321636,208588.4866,0.1487121582,-0.01234436035,-0.9856872559,208588.4492,-0.01063533407,0.004146275576,-0.007227286696,208585.106,0,-1.220752,101.3004,,,
1591401233.75,7.73,195,1591401220,1.301263484,103.835952,17.39661,12.20711708,7000.092435,1591401234,200.0953369,3.555450439,-74.00036621,241.8069916,241.6645508,14.90320873,208588.5265,0.1482391357,-0.005401611328,-0.9872894287,208588.4891,-0.008157262579,0.002367550274,-0.006957508158,208586.0639,0,-1.220752,101.3004,,,
1591401233.79,7.77,196,1591401220,1.301263484,103.835952,17.39661,12.20711708,7000.092435,1591401234,201.2412109,3.549987793,-73.7979126,241.8067169,241.6642761,14.90320015,208588.5664,0.1504516602,-0.003814697266,-0.992767334,208588.529,-0.009119462222,0.005439772736,-0.01103454176,208586.0639,0,-1.220752,101.3004,,,
1591401233.83,7.81,197,1591401220,1.301263484,103.835952,17.39661,12.20711708,7000.092435,1591401234,201.2412109,3.549987793,-73.7979126,241.8067169,241.6642761,14.90320015,208588.6064,0.1503601074,-0.001510620117,-0.9920654297,208588.5689,-0.006824882701,0.006874683779,-0.009316003881,208586.0639,0,-1.220752,101.3004,,,
1591401233.87,7.85,198,1591401220,1.301263484,103.835952,17.39661,12.20711708,7000.092435,1591401234,202.8898926,3.483169556,-74.18832397,241.8063354,241.6638947,14.90319157,208588.6463,0.1505126953,0.001480102539,-0.9957885742,208588.6089,-0.008382033557,0.005436044186,-0.00788375549,208586.0639,0,-1.220752,101.3004,,,
1591401233.91,7.89,199,1591401220,1.301263484,103.835952,17.39661,12.20711708,7000.092435,1591401234,205.1235352,3.796722412,-74.43005371,241.8065643,241.6641235,14.90318108,208588.6862,0.1502838135,-0.00439453125,-0.9998626709,208588.6488,-0.009785252623,0.007293066476,-0.009888583794,208586.0639,0,-1.220752,101.3004,,,
1591401233.95,7.93,200,1591401220,1.301263484,103.835952,17.39661,12.20711708,7000.092435,1591401234,209.0152588,5.317977905,-74.91213989,241.8056183,241.6631775,14.90317059,208588.7261,0.1504974365,-0.01235961914,-0.9995422363,208588.6887,-0.007719438523,0.007493069861,-0.01062388252,208586.0639,0,-1.220752,101.3004,,,
1591401234.00,7.97,201,1591401220,1.301263484,103.835952,17.39661,12.20711708,7000.092435,1591401234,215.1329346,7.689041138,-75.66342163,241.8052521,241.6628113,14.9031601,208588.766,0.1522674561,-0.02067565918,-1.002578735,208588.7685,-0.0087135965,0.004352670629,-0.009175122716,208586.0639,0,-1.220752,101.3004,,,
1591401234.03,8.01,202,1591401220,1.301263484,103.835952,17.39661,12.20711708,7000.092435,1591401234,215.1329346,7.689041138,-75.66342163,241.8052521,241.6628113,14.9031601,208588.8059,0.1524810791,-0.03266906738,-1.004013062,208588.7685,-0.0087135965,0.004352670629,-0.009175122716,208586.0639,0,-1.220752,101.3004,,,
1591401234.07,8.05,203,1591401220,1.301263484,103.835952,17.39661,12.20711708,7000.092435,1591401234,222.1657715,8.240539551,-76.49185181,241.8021698,241.659729,14.90315151,208588.8459,0.1544952393,-0.03868103027,-1.001159668,208588.8084,-0.006987868343,0.002267681761,-0.009424926713,208586.0639,0,-1.220752,101.3004,,,
1591401234.11,8.09,204,1591401220,1.301263484,103.835952,17.39661,12.20711708,7000.092435,1591401234,228.1088867,7.091827393,-77.21707153,241.7991486,241.6567078,14.90314484,208588.8858,0.1518554688,-0.04122924805,-0.997833252,208588.8484,-0.007028880995,0.004792890977,-0.006483199075,208586.0639,0,-1.220752,101.3004,,,
1591401234.15,8.13,205,1591401220,1.301263484,103.835952,17.39661,12.20711708,7000.092435,1591401234,232.4344482,3.409759521,-77.69558716,241.7963409,241.6539001,14.90313625,208588.9257,0.1527557373,-0.03887939453,-0.9928436279,208588.8883,-0.007170294877,0.002163818339,-0.006942328066,208586.0639,0,-1.220752,101.3004,,,
1591401234.19,8.17,206,1591401220,1.301263484,103.835952,17.39661,12.20711708,7000.092435,1591401234,235.7047119,0.990234375,-78.08197021,241.7969971,241.6545563,14.90312672,208588.9656,0.1516723633,-0.03392028809,-0.9912719727,208588.9282,-0.008075237274,0.00361337699,-0.0102832634,208586.0639,0,-1.220752,101.3004,,,
1591401234.23,8.21,207,1591401220,1.301263484,103.835952,17.39661,12.20711708,7000.092435,1591401234,240.0939941,-0.4335021973,-78.387146,241.7995148,241.657074,14.90311241,208589.0055,0.150177002,-0.02565002441,-0.9877624512,208588.9681,-0.009814281017,0.003767041257,-0.01355682127,208586.0639,0,-1.220752,101.3004,,,
1591401234.27,8.25,208,1591401220,1.301263484,103.835952,17.39661,12.20711708,7000.092435,1591401234,240.0939941,-0.4335021973,-78.387146,241.7995148,241.657074,14.90311241,208589.0455,0.1507263184,-0.01457214355,-0.9856109619,208589.008,-0.009964217432,0.001567802974,-0.009619071148,208586.0639,0,-1.220752,101.3004,,,
1591401234.31,8.29,209,1591401220,1.301263484,103.835952,17.39661,12.20711708,7000.092435,1591401234,244.6617432,-1.799545288,-79.01025391,241.8012238,241.658783,14.90309715,208589.0854,0.1488342285,-0.01312255859,-0.9876098633,208589.048,-0.00722675398,0.008093879558,-0.009721869603,208586.0639,0,-1.220752,101.3004,,,
1591401234.35,8.33,210,1591401220,1.301263484,103.835952,17.39661,12.20711708,7000.092435,1591401234,248.5030518,-3.095123291,-79.3571167,241.8011322,241.6586914,14.90308189,208589.1253,0.1491394043,-0.01188659668,-0.9921112061,208589.0879,-0.008828645572,0.002877811901,-0.008280300535,208586.0639,0,-1.220752,101.3004,,,
1591401234.39,8.37,211,1591401220,1.301263484,103.835952,17.39661,12.20711708,7000.092435,1591401234,252.9647217,-4.976959229,-80.07516479,241.8000793,241.6576385,14.90306664,208589.1652,0.1501159668,-0.01042175293,-0.996307373,208589.1278,-0.008700546809,0.007758853491,-0.009441970848,208586.0639,0,-1.220752,101.3004,,,
1591401234.43,8.41,212,1591401220,1.301263484,103.835952,17.39661,12.20711708,7000.092435,1591401234,252.9647217,-4.976959229,-80.07516479,241.8000793,241.6576385,14.90306664,208589.2051,0.1502685547,-0.01393127441,-0.9972229004,208589.1677,-0.01022866927,0.004709001631,-0.01089259516,208586.0639,0,-1.220752,101.3004,,,
1591401234.47,8.45,213,1591401220,1.301263484,103.835952,17.39661,12.20711708,7000.092435,1591401234,257.029541,-7.66053772,-80.37280273,241.7985992,241.6561584,14.90304947,208589.245,0.1527404785,-0.01593017578,-1.000366211,208589.2076,-0.01080151461,0.0002876213985,-0.01003505755,208586.0639,0,-1.220752,101.3004,,,
1591401234.51,8.49,214,1591401220,1.301263484,103.835952,17.39661,12.20711708,7000.092435,1591401234,260.3675537,-10.46498108,-80.2024231,241.7978363,241.6553955,14.90303421,208589.285,0.1516571045,-0.01629638672,-0.9996185303,208589.2475,-0.01102468744,0.006163087208,-0.009441704489,208586.0639,0,-1.220752,101.3004,,,
1591401234.55,8.53,215,1591401220,1.301263484,103.835952,17.39661,12.20711708,7000.092435,1591401235,262.5299072,-13.82110596,-80.29556274,241.799469,241.6570282,14.90301704,208589.3249,0.1524200439,-0.02052307129,-0.9979400635,208589.2875,-0.009574330412,0.00620196946,-0.01028486155,208586.0639,0,-1.220752,101.3004,,,
1591401234.59,8.57,216,1591401220,1.301263484,103.835952,17.39661,12.20711708,7000.092435,1591401235,264.3486328,-16.1633606,-80.03540039,241.8011017,241.6586609,14.90299988,208589.3648,0.1524658203,-0.02491760254,-0.9999237061,208589.3274,-0.007240069564,0.005119394511,-0.01045317389,208586.0639,0,-1.220752,101.3004,,,
1591401234.63,8.61,217,1591401220,1.301263484,103.835952,17.39661,12.20711708,7000.092435,1591401235,264.3486328,-16.1633606,-80.03540039,241.8011017,241.6586609,14.90299988,208589.4047,0.1507568359,-0.03170776367,-0.9992370605,208589.3673,-0.01056236308,0.005415005609,-0.008110124618,208586.0639,0,-1.220752,101.3004,,,
1591401234.67,8.65,218,1591401220,1.301263484,103.835952,17.39661,12.20711708,7000.092435,1591401235,266.2875977,-18.47113037,-80.0350647,241.8004608,241.65802,14.90298653,208589.4446,0.15184021,-0.03924560547,-0.9998168945,208589.4072,-0.007018228527,0.005674663465,-0.009112006053,208586.0639,0,-1.220752,101.3004,,,
1591401234.71,8.69,219,1591401220,1.301263484,103.835952,17.39661,12.20711708,7000.092435,1591401235,268.2692871,-20.24017334,-79.63482666,241.8005219,241.6580811,14.90297127,208589.4845,0.1524505615,-0.04235839844,-0.9956207275,208589.4471,-0.007981494069,0.007901598699,-0.008840629831,208587.0219,0,-1.146767,101.2995,,,
1591401234.75,8.73,220,1591401220,1.301263484,103.835952,17.39661,12.20711708,7000.092435,1591401235,269.2519531,-22.54528809,-79.07174683,241.8007507,241.6583099,14.9029541,208589.5245,0.1504516602,-0.04444885254,-0.9957427979,208589.487,-0.008979380131,0.007903995924,-0.008525843732,208587.0219,0,-1.146767,101.2995,,,
1591401234.79,8.77,221,1591401220,1.301263484,103.835952,17.39661,12.20711708,7000.092435,1591401235,268.230835,-26.43023682,-78.36328125,241.7969513,241.6545105,14.90293694,208589.5644,0.150894165,-0.04507446289,-0.993560791,208589.527,-0.007249390706,0.001903361175,-0.008225172758,208587.0219,0,-1.146767,101.2995,,,
1591401234.83,8.81,222,1591401220,1.301263484,103.835952,17.39661,12.20711708,7000.092435,1591401235,266.4338379,-30.2204895,-77.31283569,241.7961731,241.6537323,14.90291595,208589.6043,0.15184021,-0.04110717773,-0.9901123047,208589.5669,-0.01080817264,0.0004487426486,-0.0107122995,208587.0219,0,-1.146767,101.2995,,,
1591401234.87,8.84,223,1591401220,1.301263484,103.835952,17.39661,12.20711708,7000.092435,1591401235,266.4338379,-30.2204895,-77.31283569,241.7961731,241.6537323,14.90291595,208589.6442,0.1507263184,-0.03744506836,-0.9878082275,208589.6068,-0.005776396487,0.004574778024,-0.006181463134,208587.0219,0,-1.146767,101.2995,,,
1591401234.91,8.88,224,1591401220,1.301263484,103.835952,17.39661,12.20711708,7000.092435,1591401235,264.5283203,-32.13287354,-76.14395142,241.7956848,241.653244,14.90289593,208589.6841,0.1529541016,-0.03573608398,-0.9912414551,208589.6467,-0.006918360014,0.004815794062,-0.007700796705,208587.0219,0,-1.146767,101.2995,,,
1591401234.95,8.93,225,1591401220,1.301263484,103.835952,17.39661,12.20711708,7000.092435,1591401235,262.9765625,-33.20672607,-74.77658081,241.7960052,241.6535645,14.90287399,208589.7241,0.1512908936,-0.03607177734,-0.9932098389,208589.6866,-0.007540740538,0.006546049844,-0.01053120382,208587.0219,0,-1.146767,101.2995,,,
1591401234.99,8.96,226,1591401220,1.301263484,103.835952,17.39661,12.20711708,7000.092435,1591401235,262.423584,-33.43695068,-73.815979,241.7958374,241.6533966,14.9028511,208589.764,0.151550293,-0.04055786133,-0.9935913086,208589.7266,-0.009723467752,0.006805708166,-0.008285094053,208587.0219,0,-1.146767,101.2995,,,
1591401235.03,9.00,227,1591401220,1.301263484,103.835952,17.39661,12.20711708,7000.092435,1591401235,262.423584,-33.43695068,-73.815979,241.7958374,241.6533966,14.9028511,208589.8039,0.1528930664,-0.04484558105,-0.9988098145,208589.7665,-0.007089068647,0.007728493307,-0.008619586937,208587.0219,0,-1.146767,101.2995,,,
1591401235.07,9.05,228,1591401220,1.301263484,103.835952,17.39661,12.20711708,7000.092435,1591401235,261.7879639,-33.6986084,-72.76901245,241.7961731,241.6537323,14.90282726,208589.8438,0.1519927979,-0.04891967773,-1.001205444,208589.8064,-0.01073493622,0.008758338168,-0.008140484802,208587.0219,0,-1.146767,101.2995,,,
1591401235.11,9.08,229,1591401220,1.301263484,103.835952,17.39661,12.20711708,7000.092435,1591401235,261.8583984,-33.70324707,-71.73248291,241.796051,241.6536102,14.90280342,208589.8837,0.1524658203,-0.05192565918,-1.002716064,208589.8463,-0.007700263988,0.005482649896,-0.00724299904,208587.0219,0,-1.146767,101.2995,,,
1591401235.15,9.12,230,1591401220,1.301263484,103.835952,17.39661,12.20711708,7000.092435,1591401235,261.5793457,-34.86175537,-70.30499268,241.7976074,241.6551666,14.90277958,208589.9236,0.1542358398,-0.05264282227,-0.9996337891,208589.8862,-0.007503989153,0.007364172954,-0.009862750769,208587.0219,0,-1.146767,101.2995,,,
1591401235.19,9.17,231,1591401220,1.301263484,103.835952,17.39661,12.20711708,7000.092435,1591401235,261.2698975,-35.40319824,-69.31610107,241.7978516,241.6554108,14.90275764,208589.9636,0.1538085938,-0.05332946777,-1.000045776,208589.9261,-0.01043399889,0.00495561026,-0.01012081094,208587.0219,0,-1.146767,101.2995,,,
1591401235.23,9.20,232,1591401220,1.301263484,103.835952,17.39661,12.20711708,7000.092435,1591401235,261.2698975,-35.40319824,-69.31610107,241.7978516,241.6554108,14.90275764,208590.0035,0.1528167725,-0.0521697998,-0.9979400635,208589.9661,-0.007578557357,0.002064482542,-0.007506385911,208587.0219,0,-1.146767,101.2995,,,
1591401235.27,9.24,233,1591401220,1.301263484,103.835952,17.39661,12.20711708,7000.092435,1591401235,260.8045654,-36.44699097,-67.97579956,241.7963257,241.6538849,14.90273666,208590.0434,0.1539154053,-0.05140686035,-0.9948120117,208590.006,-0.007736483123,0.006091980729,-0.008339689113,208587.0219,0,-1.146767,101.2995,,,
1591401235.32,9.29,234,1591401220,1.301263484,103.835952,17.39661,12.20711708,7000.092435,1591401235,260.9858398,-36.23480225,-66.3899231,241.7962952,241.6538544,14.90271282,208590.0833,0.1523132324,-0.04934692383,-0.99269104,208590.0459,-0.007821171544,0.007864315063,-0.01227397658,208587.0219,0,-1.146767,101.2995,,,
1591401235.35,9.32,235,1591401220,1.301263484,103.835952,17.39661,12.20711708,7000.092435,1591401235,261.5541992,-36.45046997,-65.07229614,241.7962799,241.6538391,14.90268421,208590.1232,0.1511077881,-0.04669189453,-0.9930419922,208590.0858,-0.008161257021,0.002294313163,-0.008207862265,208587.0219,0,-1.146767,101.2995,,,
1591401235.39,9.36,236,1591401220,1.301263484,103.835952,17.39661,12.20711708,7000.092435,1591401235,261.6657715,-37.11676025,-63.48654175,241.7960052,241.6535645,14.90265465,208590.1631,0.1512298584,-0.04679870605,-0.9929351807,208590.1257,-0.005496231839,0.007685350254,-0.006045109127,208587.0219,0,-1.146767,101.2995,,,
1591401235.43,9.41,237,1591401220,1.301263484,103.835952,17.39661,12.20711708,7000.092435,1591401235,261.743042,-38.77450562,-62.16119385,241.7958832,241.6534424,14.90262222,208590.2031,0.1508636475,-0.0454864502,-0.9939575195,208590.1656,-0.007170294877,0.002967027714,-0.009921872988,208587.0219,0,-1.146767,101.2995,,,
1591401235.47,9.44,238,1591401220,1.301263484,103.835952,17.39661,12.20711708,7000.092435,1591401235,261.743042,-38.77450562,-62.16119385,241.7958832,241.6534424,14.90262222,208590.243,0.150604248,-0.04373168945,-0.993347168,208590.2056,-0.01084785443,0.003516970435,-0.007840612903,208587.0219,0,-1.146767,101.2995,,,
1591401235.51,9.48,239,1591401220,1.301263484,103.835952,17.39661,12.20711708,7000.092435,1591401235,262.1800537,-39.45187378,-60.47784424,241.7966919,241.6542511,14.9025898,208590.2829,0.1525726318,-0.04348754883,-0.9928741455,208590.2455,-0.004787564743,0.008472314104,-0.007222226355,208587.0219,0,-1.146767,101.2995,,,
1591401235.55,9.53,240,1591401220,1.301263484,103.835952,17.39661,12.20711708,7000.092435,1591401236,262.5708008,-40.52789307,-58.68539429,241.796463,241.6540222,14.90255737,208590.3228,0.1531066895,-0.04582214355,-0.997543335,208590.2854,-0.005567871034,0.006389189512,-0.01107235812,208587.0219,0,-1.146767,101.2995,,,
1591401235.59,9.56,241,1591401220,1.301263484,103.835952,17.39661,12.20711708,7000.092435,1591401236,262.789917,-41.8152771,-57.01062012,241.7975006,241.6550598,14.90252495,208590.3627,0.1532287598,-0.04600524902,-0.9983215332,208590.3253,-0.009699765593,0.004845355172,-0.008857141249,208587.0219,0,-1.146767,101.2995,,,
1591401235.63,9.60,242,1591401220,1.301263484,103.835952,17.39661,12.20711708,7000.092435,1591401236,262.789917,-41.8152771,-57.01062012,241.7975006,241.6550598,14.90252495,208590.4027,0.1540985107,-0.04956054688,-1.000579834,208590.3652,-0.009829727933,0.006718622521,-0.008253135718,208587.0219,0,-1.146767,101.2995,,,
1591401235.68,9.66,243,1591401220,1.301263484,103.835952,17.39661,12.20711708,7000.092435,1591401236,262.4384766,-44.66531372,-52.81140137,241.7969666,241.6545258,14.90245724,208590.4426,0.1525726318,-0.05018615723,-0.9997253418,208590.4052,-0.007400658447,0.0028447886,-0.009435047396,208587.9798,0,-0.5152524,101.2919,,,
1591401235.71,9.68,244,1591401220,1.301263484,103.835952,17.39661,12.20711708,7000.092435,1591401236,262.4384766,-44.66531372,-52.81140137,241.7969666,241.6545258,14.90245724,208590.4825,0.1541290283,-0.05047607422,-0.9989929199,208590.4451,-0.009427856654,0.006163353566,-0.009302421473,208587.9798,0,-0.5152524,101.2919,,,
1591401235.74,9.72,245,1591401220,1.301263484,103.835952,17.39661,12.20711708,7000.092435,1591401236,262.7047119,-45.42324829,-50.96224976,241.7971649,241.6547241,14.90242481,208590.5224,0.152633667,-0.04837036133,-0.9982452393,208590.485,-0.007476558443,0.00629491359,-0.009605223313,208587.9798,0,-0.5152524,101.2919,,,
1591401235.79,9.77,246,1591401220,1.301263484,103.835952,17.39661,12.20711708,7000.092435,1591401236,262.2050781,-46.85360718,-49.16296387,241.7963562,241.6539154,14.90239048,208590.5623,0.1526794434,-0.04885864258,-0.9983062744,208590.5648,-0.007668838836,0.01001321897,-0.007139934693,208587.9798,0,-0.5152524,101.2919,,,
1591401235.82,9.80,247,1591401220,1.301263484,103.835952,17.39661,12.20711708,7000.092435,1591401236,262.2050781,-46.85360718,-49.16296387,241.7963562,241.6539154,14.90239048,208590.6022,0.1522216797,-0.04789733887,-0.9963378906,208590.5648,-0.007668838836,0.01001321897,-0.007139934693,208587.9798,0,-0.5152524,101.2919,,,
1591401235.86,9.84,248,1591401220,1.301263484,103.835952,17.39661,12.20711708,7000.092435,1591401236,261.7855225,-47.65585327,-46.82391357,241.7963562,241.6539154,14.90235615,208590.6422,0.1513519287,-0.04475402832,-0.9953765869,208590.6047,-0.007586546708,0.005325789563,-0.008125570603,208587.9798,0,-0.5152524,101.2919,,,
1591401235.91,9.89,249,1591401220,1.301263484,103.835952,17.39661,12.20711708,7000.092435,1591401236,261.5189209,-48.7265625,-45.03204346,241.7944183,241.6519775,14.90231991,208590.6821,0.1527404785,-0.04414367676,-0.9941253662,208590.6447,-0.008155664429,0.006118878722,-0.00860893447,208587.9798,0,-0.5152524,101.2919,,,
1591401235.94,9.92,250,1591401220,1.301263484,103.835952,17.39661,12.20711708,7000.092435,1591401236,262.2823486,-49.08709717,-43.20025635,241.7928314,241.6503906,14.90228271,208590.722,0.15284729,-0.04591369629,-0.9944915771,208590.6846,-0.007636880502,0.005206213798,-0.0115679726,208587.9798,0,-0.5152524,101.2919,,,
1591401235.98,9.96,251,1591401220,1.301263484,103.835952,17.39661,12.20711708,7000.092435,1591401236,262.9112549,-49.29946899,-41.12319946,241.7936554,241.6512146,14.90224552,208590.7619,0.1523895264,-0.04724121094,-0.9931945801,208590.7245,-0.008624114096,0.005596899427,-0.009463809431,208587.9798,0,-0.5152524,101.2919,,,
1591401236.03,10.01,252,1591401220,1.301263484,103.835952,17.39661,12.20711708,7000.092435,1591401236,263.4569092,-50.51083374,-39.65808105,241.79422,241.6517792,14.90220928,208590.8018,0.1508636475,-0.04811096191,-0.9954223633,208590.7644,-0.009215602651,0.004694087896,-0.01090111677,208587.9798,0,-0.5152524,101.2919,,,
1591401236.06,10.04,253,1591401220,1.301263484,103.835952,17.39661,12.20711708,7000.092435,1591401236,263.4569092,-50.51083374,-39.65808105,241.79422,241.6517792,14.90220928,208590.8417,0.1512145996,-0.048828125,-0.9969940186,208590.8043,-0.01031176001,0.005013933405,-0.01109579392,208587.9798,0,-0.5152524,101.2919,,,
1591401236.10,10.08,254,1591401220,1.301263484,103.835952,17.39661,12.20711708,7000.092435,1591401236,263.1837158,-52.52984619,-37.87518311,241.7937775,241.6513367,14.90217304,208590.8817,0.1495666504,-0.04928588867,-0.9967041016,208590.8442,-0.007248591632,0.004727643449,-0.008241417818,208587.9798,0,-0.5152524,101.2919,,,
1591401236.15,10.13,255,1591401220,1.301263484,103.835952,17.39661,12.20711708,7000.092435,1591401236,262.6098633,-53.65261841,-36.09237671,241.7942657,241.651825,14.90213585,208590.9216,0.1514282227,-0.04942321777,-0.9987335205,208590.8842,-0.008974852972,0.006128466222,-0.01028006803,208587.9798,0,-0.5152524,101.2919,,,
1591401236.18,10.16,256,1591401220,1.301263484,103.835952,17.39661,12.20711708,7000.092435,1591401236,262.2359619,-54.78710938,-34.41870117,241.7952118,241.652771,14.90209961,208590.9615,0.1500854492,-0.04808044434,-0.9971008301,208590.9241,-0.007170561235,0.006338057108,-0.01067155227,208587.9798,0,-0.5152524,101.2919,,,
1591401236.22,10.20,257,1591401220,1.301263484,103.835952,17.39661,12.20711708,7000.092435,1591401236,262.2359619,-54.78710938,-34.41870117,241.7952118,241.652771,14.90209961,208591.0014,0.1516113281,-0.04727172852,-0.9973754883,208590.964,-0.008741825819,0.006140450481,-0.00940761622,208587.9798,0,-0.5152524,101.2919,,,
1591401236.27,10.25,258,1591401220,1.301263484,103.835952,17.39661,12.20711708,7000.092435,1591401236,261.9696045,-55.37088013,-32.96972656,241.7927094,241.6502686,14.90206242,208591.0413,0.1495513916,-0.04922485352,-0.9964599609,208591.0039,-0.008810003288,0.009177519009,-0.008103732951,208587.9798,0,-0.5152524,101.2919,,,
1591401236.30,10.28,259,1591401220,1.301263484,103.835952,17.39661,12.20711708,7000.092435,1591401236,261.4390869,-55.93743896,-31.5458374,241.7929382,241.6504974,14.90202618,208591.0813,0.152557373,-0.0475769043,-0.9971466064,208591.0438,-0.008999354206,0.002941461513,-0.008981777355,208587.9798,0,-0.5152524,101.2919,,,
1591401236.34,10.32,260,1591401220,1.301263484,103.835952,17.39661,12.20711708,7000.092435,1591401236,260.6583252,-56.81842041,-30.43151855,241.7919159,241.6494751,14.90198898,208591.1212,0.150970459,-0.04632568359,-0.9954528809,208591.0838,-0.01060657203,0.008246478625,-0.007604124025,208587.9798,0,-0.5152524,101.2919,,,
1591401236.39,10.37,261,1591401220,1.301263484,103.835952,17.39661,12.20711708,7000.092435,1591401236,259.2628174,-57.11685181,-29.32965088,241.7925568,241.650116,14.90195179,208591.1611,0.1510772705,-0.04643249512,-0.9948577881,208591.1237,-0.01092215627,0.006761233322,-0.00850107614,208587.9798,0,-0.5152524,101.2919,,,
1591401236.42,10.40,262,1591401220,1.301263484,103.835952,17.39661,12.20711708,7000.092435,1591401236,259.2628174,-57.11685181,-29.32965088,241.7925568,241.650116,14.90195179,208591.201,0.1494903564,-0.04695129395,-0.9962921143,208591.1636,-0.008703743108,0.007334878203,-0.008730906993,208587.9798,0,-0.5152524,101.2919,,,
1591401236.46,10.44,263,1591401220,1.301263484,103.835952,17.39661,12.20711708,7000.092435,1591401236,258.1384277,-56.87408447,-28.13449097,241.7919464,241.6495056,14.90191555,208591.2409,0.1521911621,-0.04452514648,-0.9951019287,208591.2035,-0.00766457757,0.008237423375,-0.009957559407,208587.9798,0,-0.5152524,101.2919,,,
1591401236.52,10.49,264,1591401220,1.301263484,103.835952,17.39661,12.20711708,7000.092435,1591401236,256.6724854,-56.8230896,-26.96734619,241.7926788,241.650238,14.90187836,208591.2808,0.1510925293,-0.04629516602,-0.9958953857,208591.2434,-0.0107591711,0.005111671519,-0.00888936501,208587.9798,0,-0.5152524,101.2919,,,
1591401236.54,10.52,265,1591401220,1.301263484,103.835952,17.39661,12.20711708,7000.092435,1591401237,256.0032959,-55.50088501,-26.19665527,241.7953339,241.6528931,14.90184212,208591.3208,0.151763916,-0.04681396484,-0.9964599609,208591.2833,-0.008115184493,0.01249208953,-0.01232164726,208587.9798,0,-0.5152524,101.2919,,,
1591401236.58,10.56,266,1591401220,1.301263484,103.835952,17.39661,12.20711708,7000.092435,1591401237,256.4807129,-54.60058594,-25.66305542,241.7970886,241.6546478,14.90180492,208591.3607,0.1533203125,-0.04838562012,-0.99659729,208591.3233,-0.006329268683,0.003923634999,-0.009933324531,208587.9798,0,-0.5152524,101.2919,,,
1591401236.63,10.61,267,1591401220,1.301263484,103.835952,17.39661,12.20711708,7000.092435,1591401237,256.7332764,-54.25183105,-25.41455078,241.7982941,241.6558533,14.90176868,208591.4006,0.1550750732,-0.04745483398,-0.9973907471,208591.3632,-0.007303186692,0.004664260428,-0.009986055084,208588.9376,0,0.4201288,101.2807,,,
1591401236.66,10.64,268,1591401220,1.301263484,103.835952,17.39661,12.20711708,7000.092435,1591401237,256.7332764,-54.25183105,-25.41455078,241.7982941,241.6558533,14.90176868,208591.4405,0.1552581787,-0.04824829102,-0.9964752197,208591.4031,-0.00991574768,0.007972971536,-0.01072295196,208588.9376,0,0.4201288,101.2807,,,
1591401236.70,10.68,269,1591401220,1.301263484,103.835952,17.39661,12.20711708,7000.092435,1591401237,256.5023193,-54.08047485,-25.38571167,241.7987671,241.6563263,14.90173435,208591.4804,0.1550598145,-0.04736328125,-0.9986877441,208591.443,-0.007782022934,0.004220045172,-0.01010456588,208588.9376,0,0.4201288,101.2807,,,
1591401236.76,10.73,270,1591401220,1.301263484,103.835952,17.39661,12.20711708,7000.092435,1591401237,256.8044434,-54.74630737,-24.86056519,241.7970428,241.6546021,14.90170097,208591.5203,0.156539917,-0.04772949219,-0.9972229004,208591.4829,-0.01078793313,0.00227806787,-0.006903179921,208588.9376,0,0.4201288,101.2807,,,
1591401236.78,10.76,271,1591401220,1.301263484,103.835952,17.39661,12.20711708,7000.092435,1591401237,257.0849609,-55.16397095,-24.92547607,241.7982941,241.6558533,14.90166664,208591.5603,0.1537322998,-0.04563903809,-0.9981231689,208591.5228,-0.005859753117,0.001805889537,-0.0115008615,208588.9376,0,0.4201288,101.2807,,,
1591401236.82,10.80,272,1591401220,1.301263484,103.835952,17.39661,12.20711708,7000.092435,1591401237,257.0849609,-55.16397095,-24.92547607,241.7982941,241.6558533,14.90166664,208591.6002,0.155456543,-0.04495239258,-0.9982299805,208591.5628,-0.00993492268,0.004150802735,-0.01073733252,208588.9376,0,0.4201288,101.2807,,,
1591401236.87,10.85,273,1591401220,1.301263484,103.835952,17.39661,12.20711708,7000.092435,1591401237,257.442627,-55.44946289,-24.44662476,241.7994843,241.6570435,14.90163231,208591.6401,0.1524200439,-0.04432678223,-0.9971618652,208591.6027,-0.006966562942,0.001439971151,-0.008824650198,208588.9376,0,0.4201288,101.2807,,,
1591401236.90,10.88,274,1591401220,1.301263484,103.835952,17.39661,12.20711708,7000.092435,1591401237,257.9647217,-55.83441162,-24.61761475,241.8022614,241.6598206,14.90159607,208591.68,0.1540679932,-0.04597473145,-0.9942321777,208591.6426,-0.00800785888,0.0007994809421,-0.00869149249,208588.9376,0,0.4201288,101.2807,,,
1591401236.94,10.92,275,1591401220,1.301263484,103.835952,17.39661,12.20711708,7000.092435,1591401237,258.2226563,-56.4954834,-24.45825195,241.8025665,241.6601257,14.90156078,208591.7199,0.1537780762,-0.04550170898,-0.9970245361,208591.6825,-0.007657919545,-0.0004431499983,-0.007254450582,208588.9376,0,0.4201288,101.2807,,,
1591401236.99,10.97,276,1591401220,1.301263484,103.835952,17.39661,12.20711708,7000.092435,1591401237,258.2873535,-56.98269653,-24.13983154,241.8035278,241.661087,14.90152454,208591.7599,0.1525115967,-0.04531860352,-0.9985961914,208591.7224,-0.007580687758,0.003952131141,-0.008836368099,208588.9376,0,0.4201288,101.2807,,,
1591401237.02,11.00,277,1591401220,1.301263484,103.835952,17.39661,12.20711708,7000.092435,1591401237,258.2873535,-56.98269653,-24.13983154,241.8035278,241.661087,14.90152454,208591.7998,0.1520996094,-0.04693603516,-0.9947662354,208591.7624,-0.008901881985,-0.001382979564,-0.01140472107,208588.9376,0,0.4201288,101.2807,,,
1591401237.06,11.04,278,1591401220,1.301263484,103.835952,17.39661,12.20711708,7000.092435,1591401237,259.0662842,-57.26330566,-23.88040161,241.8057404,241.6632996,14.9014883,208591.8397,0.1514587402,-0.04699707031,-0.9996948242,208591.8023,-0.009587113746,0.004031759687,-0.009739180095,208588.9376,0,0.4201288,101.2807,,,
1591401237.11,11.09,279,1591401220,1.301263484,103.835952,17.39661,12.20711708,7000.092435,1591401237,259.3814697,-57.66931152,-23.87576294,241.8084259,241.6659851,14.90145302,208591.8796,0.1489562988,-0.04643249512,-0.9939422607,208591.8422,-0.007747135591,0.002016279148,-0.009121060371,208588.9376,0,0.4201288,101.2807,,,
1591401237.14,11.12,280,1591401220,1.301263484,103.835952,17.39661,12.20711708,7000.092435,1591401237,259.7250977,-58.40945435,-23.26150513,241.8111115,241.6686707,14.90141869,208591.9195,0.1501464844,-0.04698181152,-0.9955749512,208591.8821,-0.007021690253,0.00313533959,-0.01019324921,208588.9376,0,0.4201288,101.2807,,,
1591401237.18,11.16,281,1591401220,1.301263484,103.835952,17.39661,12.20711708,7000.092435,1591401237,260.1538086,-59.46841431,-22.97644043,241.8132477,241.6708069,14.90138245,208591.9594,0.1477966309,-0.04675292969,-0.9950866699,208591.922,-0.006897587329,0.002854908584,-0.01187050808,208588.9376,0,0.4201288,101.2807,,,
1591401237.23,11.21,282,1591401220,1.301263484,103.835952,17.39661,12.20711708,7000.092435,1591401237,260.7303467,-59.85818481,-22.60327148,241.812973,241.6705322,14.90134716,208591.9994,0.1469268799,-0.04583740234,-0.9950561523,208591.9619,-0.007346329745,0.007290403359,-0.007205182221,208588.9376,0,0.4201288,101.2807,,,
1591401237.26,11.24,283,1591401220,1.301263484,103.835952,17.39661,12.20711708,7000.092435,1591401237,260.7303467,-59.85818481,-22.60327148,241.812973,241.6705322,14.90134716,208592.0393,0.1487884521,-0.04695129395,-0.9958343506,208592.0019,-0.008822253905,0.002124137245,-0.01206545159,208588.9376,0,0.4201288,101.2807,,,
1591401237.30,11.28,284,1591401220,1.301263484,103.835952,17.39661,12.20711708,7000.092435,1591401237,261.7441406,-60.33047485,-22.01287842,241.8134918,241.671051,14.90131283,208592.0792,0.1486053467,-0.04585266113,-0.9948272705,208592.0418,-0.005927663762,0.008394283243,-0.008567389101,208588.9376,0,0.4201288,101.2807,,,
1591401237.35,11.33,285,1591401220,1.301263484,103.835952,17.39661,12.20711708,7000.092435,1591401237,263.4118652,-61.62405396,-21.37884521,241.8140106,241.6715698,14.90127659,208592.1191,0.1499176025,-0.04501342773,-0.9934844971,208592.0817,-0.009354086593,0.007963118143,-0.008056861348,208588.9376,0,0.4201288,101.2807,,,
1591401237.38,11.36,286,1591401220,1.301263484,103.835952,17.39661,12.20711708,7000.092435,1591401237,264.8132324,-63.1137085,-20.64193726,241.812912,241.6704712,14.90124321,208592.159,0.1480407715,-0.04479980469,-0.994934082,208592.1216,-0.007881625555,0.001820803271,-0.009007343091,208588.9376,0,0.4201288,101.2807,,,
1591401237.42,11.40,287,1591401220,1.301263484,103.835952,17.39661,12.20711708,7000.092435,1591401237,264.8132324,-63.1137085,-20.64193726,241.812912,241.6704712,14.90124321,208592.1989,0.1500549316,-0.04341125488,-0.9957427979,208592.1615,-0.01054238901,0.004478371702,-0.00885847304,208588.9376,0,0.4201288,101.2807,,,
1591401237.47,11.45,288,1591401220,1.301263484,103.835952,17.39661,12.20711708,7000.092435,1591401237,268.1273193,-68.41503906,-18.15185547,241.8148041,241.6723633,14.90117264,208592.2389,0.1497955322,-0.04461669922,-0.9962310791,208592.2014,-0.009958891198,0.004052266013,-0.006049636751,208588.9376,0,0.4201288,101.2807,,,
1591401237.50,11.48,289,1591401220,1.301263484,103.835952,17.39661,12.20711708,7000.092435,1591401237,268.1273193,-68.41503906,-18.15185547,241.8148041,241.6723633,14.90117264,208592.2788,0.1534118652,-0.04428100586,-0.9975738525,208592.2414,-0.008082959801,0.007195594721,-0.0106214853,208588.9376,0,0.4201288,101.2807,,,
1591401237.54,11.52,290,1591401220,1.301263484,103.835952,17.39661,12.20711708,7000.092435,1591401238,268.7536621,-71.01977539,-16.26754761,241.813858,241.6714172,14.90113831,208592.3187,0.1507263184,-0.04560852051,-0.9988861084,208592.2813,-0.01148221921,0.006297843065,-0.005581186619,208588.9376,0,0.4201288,101.2807,,,
1591401237.60,11.57,291,1591401220,1.301263484,103.835952,17.39661,12.20711708,7000.092435,1591401238,268.9155273,-73.73452759,-14.230896,241.8138275,241.6713867,14.90110493,208592.3586,0.1528320313,-0.04449462891,-0.9981994629,208592.3212,-0.007521299645,0.006101035513,-0.007301854901,208589.8952,0,1.506122,101.2676,,,
1591401237.62,11.60,292,1591401220,1.301263484,103.835952,17.39661,12.20711708,7000.092435,1591401238,268.9155273,-73.73452759,-14.230896,241.8138275,241.6713867,14.90110493,208592.3985,0.1524505615,-0.04461669922,-0.9971923828,208592.3611,-0.007769239601,0.0006996124284,-0.01082415227,208589.8952,0,1.506122,101.2676,,,
1591401237.66,11.64,293,1591401220,1.301263484,103.835952,17.39661,12.20711708,7000.092435,1591401238,268.8071289,-75.56054688,-11.49346924,241.8170929,241.6746521,14.90107059,208592.4385,0.1539764404,-0.04512023926,-0.9961090088,208592.401,-0.009022257291,0.005280515645,-0.009986321442,208589.8952,0,1.506122,101.2676,,,
1591401237.71,11.69,294,1591401220,1.301263484,103.835952,17.39661,12.20711708,7000.092435,1591401238,267.7574463,-76.50045776,-8.779907227,241.8153839,241.6729431,14.90103626,208592.4784,0.1542205811,-0.04550170898,-0.9947509766,208592.441,-0.01073706616,0.003348658793,-0.008751680143,208589.8952,0,1.506122,101.2676,,,
1591401237.74,11.72,295,1591401220,1.301263484,103.835952,17.39661,12.20711708,7000.092435,1591401238,266.7176514,-75.84509277,-5.762145996,241.8145294,241.6720886,14.90100193,208592.5183,0.1553497314,-0.04577636719,-0.9940490723,208592.4809,-0.008006793447,0.006778543815,-0.009539709426,208589.8952,0,1.506122,101.2676,,,
1591401237.78,11.76,296,1591401220,1.301263484,103.835952,17.39661,12.20711708,7000.092435,1591401238,265.020752,-74.4883728,-3.146148682,241.813858,241.6714172,14.9009676,208592.5582,0.152923584,-0.04565429688,-0.9922943115,208592.5208,-0.009392170236,0.006706372369,-0.007445665542,208589.8952,0,1.506122,101.2676,,,
1591401237.83,11.81,297,1591401220,1.301263484,103.835952,17.39661,12.20711708,7000.092435,1591401238,262.9346924,-72.14889526,-0.7904052734,241.8144379,241.6719971,14.90093422,208592.5981,0.1514587402,-0.04473876953,-0.9933624268,208592.5607,-0.01008113008,0.001888181199,-0.009442237206,208589.8952,0,1.506122,101.2676,,,
1591401237.86,11.84,298,1591401220,1.301263484,103.835952,17.39661,12.20711708,7000.092435,1591401238,262.9346924,-72.14889526,-0.7904052734,241.8144379,241.6719971,14.90093422,208592.638,0.1509399414,-0.04325866699,-0.994430542,208592.6006,-0.009682188742,0.006800648291,-0.009597499855,208589.8952,0,1.506122,101.2676,,,
1591401237.90,11.88,299,1591401220,1.301263484,103.835952,17.39661,12.20711708,7000.092435,1591401238,261.5749512,-69.08834839,1.270690918,241.8159332,241.6734924,14.90089989,208592.678,0.1481018066,-0.0435333252,-0.9896240234,208592.6405,-0.00741051184,0.00681263255,-0.01106463559,208589.8952,0,1.506122,101.2676,,,
1591401237.96,11.93,300,1591401220,1.301263484,103.835952,17.39661,12.20711708,7000.092435,1591401238,260.3138428,-65.76568604,2.309997559,241.8137817,241.6713409,14.90086555,208592.7179,0.1488800049,-0.04382324219,-0.9948730469,208592.6805,-0.009094960988,0.005345763173,-0.006791593507,208589.8952,0,1.506122,101.2676,,,
1591401237.98,11.96,301,1591401220,1.301263484,103.835952,17.39661,12.20711708,7000.092435,1591401238,258.9765625,-63.07809448,3.786499023,241.8138275,241.6713867,14.90083122,208592.7578,0.1489105225,-0.0426940918,-0.9953460693,208592.7204,-0.01080311276,0.007854727097,-0.00820280239,208589.8952,0,1.506122,101.2676,,,
1591401238.02,12.00,302,1591401220,1.301263484,103.835952,17.39661,12.20711708,7000.092435,1591401238,258.9765625,-63.07809448,3.786499023,241.8138275,241.6713867,14.90083122,208592.7977,0.1501617432,-0.04235839844,-0.9964141846,208592.7603,-0.009135441855,0.002984338207,-0.009384979494,208589.8952,0,1.506122,101.2676,,,
1591401238.07,12.05,303,1591401220,1.301263484,103.835952,17.39661,12.20711708,7000.092435,1591401238,256.5690918,-57.74197388,5.256744385,241.8144073,241.6719666,14.90076351,208592.8376,0.1470184326,-0.04335021973,-0.9919433594,208592.8002,-0.01277012378,0.002337722806,-0.009262474254,208589.8952,0,1.506122,101.2676,,,
1591401238.10,12.08,304,1591401220,1.301263484,103.835952,17.39661,12.20711708,7000.092435,1591401238,256.5690918,-57.74197388,5.256744385,241.8144073,241.6719666,14.90076351,208592.8775,0.1504974365,-0.04313659668,-0.9986114502,208592.8401,-0.01160685532,0.006334594917,-0.009737315588,208589.8952,0,1.506122,101.2676,,,
1591401238.14,12.12,305,1591401220,1.301263484,103.835952,17.39661,12.20711708,7000.092435,1591401238,255.9116211,-55.51712036,5.198120117,241.8153381,241.6728973,14.90072918,208592.9175,0.1485595703,-0.04406738281,-0.9972991943,208592.88,-0.01056875475,0.002325205831,-0.009086173028,208589.8952,0,1.506122,101.2676,,,
1591401238.19,12.17,306,1591401220,1.301263484,103.835952,17.39661,12.20711708,7000.092435,1591401238,255.6569824,-53.30776978,4.982025146,241.8171844,241.6747437,14.90069675,208592.9574,0.1504669189,-0.0426940918,-0.9997711182,208592.92,-0.007017695811,0.004797418136,-0.007633684669,208589.8952,0,1.506122,101.2676,,,
1591401238.22,12.20,307,1591401220,1.301263484,103.835952,17.39661,12.20711708,7000.092435,1591401238,255.6569824,-53.30776978,4.982025146,241.8171844,241.6747437,14.90069675,208592.9973,0.1477355957,-0.04232788086,-0.9965515137,208592.9599,-0.008286425844,0.0111293504,-0.009954363108,208589.8952,0,1.506122,101.2676,,,
1591401238.26,12.24,308,1591401220,1.301263484,103.835952,17.39661,12.20711708,7000.092435,1591401238,256.1317139,-51.51046753,4.324829102,241.8166351,241.6741943,14.90066242,208593.0372,0.1505279541,-0.04238891602,-0.9983062744,208592.9998,-0.005124720745,0.009402289987,-0.01311873179,208589.8952,0,1.506122,101.2676,,,
1591401238.31,12.29,309,1591401220,1.301263484,103.835952,17.39661,12.20711708,7000.092435,1591401238,257.1405029,-50.40594482,3.600097656,241.8185577,241.6761169,14.90062809,208593.0771,0.1483459473,-0.04190063477,-0.9960632324,208593.0397,-0.007086139172,0.005497829523,-0.009239304811,208589.8952,0,1.506122,101.2676,,,
1591401238.34,12.32,310,1591401220,1.301263484,103.835952,17.39661,12.20711708,7000.092435,1591401238,258.0916748,-50.12637329,2.539978027,241.8178253,241.6753845,14.90059566,208593.117,0.1510314941,-0.0440826416,-0.9896850586,208593.0796,-0.00862651132,0.006841660943,-0.00955968257,208589.8952,0,1.506122,101.2676,,,
1591401238.38,12.36,311,1591401220,1.301263484,103.835952,17.39661,12.20711708,7000.092435,1591401238,259.7823486,-50.068573,1.736114502,241.8179474,241.6755066,14.90056324,208593.157,0.1512145996,-0.04447937012,-0.9929199219,208593.1195,-0.009486179799,0.0130148679,-0.009712814353,208589.8952,0,1.506122,101.2676,,,
1591401238.43,12.41,312,1591401220,1.301263484,103.835952,17.39661,12.20711708,7000.092435,1591401238,260.9519043,-50.9765625,0.4393920898,241.8168182,241.6743774,14.90052891,208593.1969,0.1525726318,-0.04496765137,-0.9884185791,208593.1595,-0.01071283128,0.01218742412,-0.009731190279,208589.8952,0,1.506122,101.2676,,,
1591401238.46,12.44,313,1591401220,1.301263484,103.835952,17.39661,12.20711708,7000.092435,1591401238,260.9519043,-50.9765625,0.4393920898,241.8168182,241.6743774,14.90052891,208593.2368,0.1510314941,-0.04527282715,-0.9908752441,208593.1994,-0.007917045616,0.009595368989,-0.008952216245,208589.8952,0,1.506122,101.2676,,,
1591401238.50,12.48,314,1591401220,1.301263484,103.835952,17.39661,12.20711708,7000.092435,1591401238,263.0961914,-51.97201538,-1.706237793,241.818512,241.6760712,14.90049648,208593.2767,0.1496429443,-0.04319763184,-0.9900054932,208593.2393,-0.00847897213,0.008056328632,-0.009353553876,208589.8952,0,1.506122,101.2676,,,
1591401238.55,12.53,315,1591401220,1.301263484,103.835952,17.39661,12.20711708,7000.092435,1591401239,266.0263672,-52.54238892,-5.076690674,241.8186798,241.676239,14.90046406,208593.3166,0.1502532959,-0.04400634766,-0.9936828613,208593.2792,-0.008629706688,0.0128026139,-0.009843043052,208590.853,0,2.610612,101.2544,,,
1591401238.58,12.56,316,1591401220,1.301263484,103.835952,17.39661,12.20711708,7000.092435,1591401239,269.6635742,-53.37136841,-9.24005127,241.8182373,241.6757965,14.90043354,208593.3566,0.1483612061,-0.04043579102,-0.9935913086,208593.3191,-0.008064584807,0.008352472447,-0.01232590806,208590.853,0,2.610612,101.2544,,,
1591401238.62,12.60,317,1591401220,1.301263484,103.835952,17.39661,12.20711708,7000.092435,1591401239,269.6635742,-53.37136841,-9.24005127,241.8182373,241.6757965,14.90043354,208593.3965,0.1497955322,-0.04273986816,-0.9907073975,208593.3591,-0.0131024858,0.00301496475,-0.01002520323,208590.853,0,2.610612,101.2544,,,
1591401238.67,12.65,318,1591401220,1.301263484,103.835952,17.39661,12.20711708,7000.092435,1591401239,276.3929443,-56.91677856,-17.75485229,241.8175507,241.6751099,14.90036869,208593.4364,0.1510620117,-0.04292297363,-0.9966430664,208593.399,-0.009293899871,0.006849383935,-0.01138075255,208590.853,0,2.610612,101.2544,,,
1591401238.70,12.68,319,1591401220,1.301263484,103.835952,17.39661,12.20711708,7000.092435,1591401239,276.3929443,-56.91677856,-17.75485229,241.8175507,241.6751099,14.90036869,208593.4763,0.1542358398,-0.04098510742,-1.000793457,208593.4389,-0.009109076113,0.001548894448,-0.008439291269,208590.853,0,2.610612,101.2544,,,
1591401238.74,12.72,320,1591401220,1.301263484,103.835952,17.39661,12.20711708,7000.092435,1591401239,276.9698486,-59.9637146,-19.68139648,241.817215,241.6747742,14.90033817,208593.5162,0.1561126709,-0.0408782959,-0.9976501465,208593.4788,-0.01046861988,0.01066675875,-0.009909888729,208590.853,0,2.610612,101.2544,,,
1591401238.79,12.77,321,1591401220,1.301263484,103.835952,17.39661,12.20711708,7000.092435,1591401239,275.1287842,-62.9546814,-20.05996704,241.8197632,241.6773224,14.9003067,208593.5561,0.1573791504,-0.04377746582,-1.001602173,208593.5187,-0.0121208448,0.006378803402,-0.009780459106,208590.853,0,2.610612,101.2544,,,
1591401238.82,12.80,322,1591401220,1.301263484,103.835952,17.39661,12.20711708,7000.092435,1591401239,275.1287842,-62.9546814,-20.05996704,241.8197632,241.6773224,14.9003067,208593.5961,0.1591491699,-0.04293823242,-1.004333496,208593.5586,-0.008322644979,0.007231813855,-0.01082335319,208590.853,0,2.610612,101.2544,,,
1591401238.86,12.84,323,1591401220,1.301263484,103.835952,17.39661,12.20711708,7000.092435,1591401239,272.28125,-64.83483887,-20.34417725,241.822464,241.6800232,14.90027809,208593.636,0.1571502686,-0.04307556152,-1.001953125,208593.5986,-0.01146490872,0.0002692455892,-0.008607069962,208590.853,0,2.610612,101.2544,,,
1591401238.92,12.89,324,1591401220,1.301263484,103.835952,17.39661,12.20711708,7000.092435,1591401239,269.0740967,-64.36123657,-19.65863037,241.8212738,241.678833,14.90025043,208593.6759,0.1590576172,-0.04443359375,-1.004608154,208593.6385,-0.006938067265,0.005685582757,-0.01114506274,208590.853,0,2.610612,101.2544,,,
1591401238.94,12.92,325,1591401220,1.301263484,103.835952,17.39661,12.20711708,7000.092435,1591401239,266.9532471,-61.55444336,-20.01654053,241.8243256,241.6818848,14.90022659,208593.7158,0.1543121338,-0.04371643066,-0.9981842041,208593.6784,-0.007805192377,0.002278600587,-0.01202763431,208590.853,0,2.610612,101.2544,,,
1591401238.98,12.96,326,1591401220,1.301263484,103.835952,17.39661,12.20711708,7000.092435,1591401239,266.3421631,-57.92709351,-21.17034912,241.8276367,241.6851959,14.90020084,208593.7557,0.1561126709,-0.04370117188,-0.9992370605,208593.7183,-0.008234494366,0.004472512752,-0.01137968712,208590.853,0,2.610612,101.2544,,,
1591401239.03,13.01,327,1591401220,1.301263484,103.835952,17.39661,12.20711708,7000.092435,1591401239,267.295166,-54.32839966,-22.97198486,241.8295135,241.6870728,14.90017223,208593.7956,0.1483612061,-0.0460357666,-0.9888153076,208593.7582,-0.00780625781,0.003601126373,-0.01051495876,208590.853,0,2.610612,101.2544,,,
1591401239.06,13.04,328,1591401220,1.301263484,103.835952,17.39661,12.20711708,7000.092435,1591401239,267.295166,-54.32839966,-22.97198486,241.8295135,241.6870728,14.90017223,208593.8356,0.1495666504,-0.04472351074,-0.9835510254,208593.7981,-0.008399610408,0.002878344385,-0.008628908545,208590.853,0,2.610612,101.2544,,,
1591401239.10,13.08,329,1591401220,1.301263484,103.835952,17.39661,12.20711708,7000.092435,1591401239,269.7501221,-50.33615112,-26.26516724,241.8322601,241.6898193,14.90014362,208593.8755,0.1447296143,-0.0471496582,-0.9805450439,208593.8381,-0.00848190207,0.007615841925,-0.008815329522,208590.853,0,2.610612,101.2544,,,
1591401239.15,13.13,330,1591401220,1.301263484,103.835952,17.39661,12.20711708,7000.092435,1591401239,271.9825439,-49.18243408,-29.40817261,241.8343048,241.691864,14.90011215,208593.9154,0.1453094482,-0.0496673584,-0.9807434082,208593.878,-0.006400907412,0.007949802093,-0.008068046533,208590.853,0,2.610612,101.2544,,,
1591401239.18,13.16,331,1591401220,1.301263484,103.835952,17.39661,12.20711708,7000.092435,1591401239,274.4550781,-48.56008911,-32.168396,241.8384552,241.6960144,14.90008163,208593.9553,0.1421661377,-0.04611206055,-0.9861755371,208593.9179,-0.01028539427,0.002922020387,-0.01152829174,208590.853,0,2.610612,101.2544,,,
1591401239.22,13.20,332,1591401220,1.301263484,103.835952,17.39661,12.20711708,7000.092435,1591401239,274.4550781,-48.56008911,-32.168396,241.8384552,241.6960144,14.90008163,208593.9952,0.1499176025,-0.0474395752,-0.9885559082,208593.9578,-0.01041029673,-0.001091896091,-0.01081269979,208590.853,0,2.610612,101.2544,,,
1591401239.27,13.25,333,1591401220,1.301263484,103.835952,17.39661,12.20711708,7000.092435,1591401239,277.4658203,-50.16293335,-37.18997192,241.8392792,241.6968384,14.90002155,208594.0352,0.1436462402,-0.04554748535,-0.9953155518,208593.9977,-0.009679791518,0.005431783386,-0.008817726746,208590.853,0,2.610612,101.2544,,,
1591401239.30,13.28,334,1591401220,1.301263484,103.835952,17.39661,12.20711708,7000.092435,1591401239,277.4658203,-50.16293335,-37.18997192,241.8392792,241.6968384,14.90002155,208594.0751,0.1468048096,-0.04119873047,-1.003067017,208594.0377,-0.01160765346,0.001571797649,-0.008788431995,208590.853,0,2.610612,101.2544,,,
1591401239.34,13.32,335,1591401220,1.301263484,103.835952,17.39661,12.20711708,7000.092435,1591401239,278.9908447,-50.44451904,-38.84420776,241.8407898,241.698349,14.89999294,208594.115,0.1463470459,-0.0400390625,-1.003433228,208594.0776,-0.01099645812,0.008875783533,-0.008382565342,208590.853,0,2.610612,101.2544,,,
1591401239.39,13.37,336,1591401220,1.301263484,103.835952,17.39661,12.20711708,7000.092435,1591401239,279.9909668,-49.53341675,-39.75982666,241.8428192,241.7003784,14.89996433,208594.1549,0.147354126,-0.04151916504,-1.001800537,208594.1175,-0.01181884296,-0.0002697782184,-0.0112798186,208590.853,0,2.610612,101.2544,,,
1591401239.42,13.40,337,1591401220,1.301263484,103.835952,17.39661,12.20711708,7000.092435,1591401239,279.9909668,-49.53341675,-39.75982666,241.8428192,241.7003784,14.89996433,208594.1948,0.1447296143,-0.04136657715,-1.00050354,208594.1574,-0.009001217782,0.005367334932,-0.009289638139,208590.853,0,2.610612,101.2544,,,
1591401239.46,13.44,338,1591401220,1.301263484,103.835952,17.39661,12.20711708,7000.092435,1591401239,281.0021973,-47.29119873,-39.7114563,241.8463593,241.7039185,14.89993668,208594.2347,0.1476135254,-0.04286193848,-0.9994659424,208594.1973,-0.01000123471,0.005958290305,-0.00815859437,208590.853,0,2.610612,101.2544,,,
1591401239.51,13.49,339,1591401220,1.301263484,103.835952,17.39661,12.20711708,7000.092435,1591401239,282.7390137,-45.45153809,-39.64001465,241.8484802,241.7060394,14.89991283,208594.2747,0.1471099854,-0.04447937012,-0.9954376221,208594.2372,-0.007204116788,0.003908455372,-0.01045530383,208591.8108,0,3.789087,101.2402,,,
1591401239.54,13.52,340,1591401220,1.301263484,103.835952,17.39661,12.20711708,7000.092435,1591401240,285.0926514,-43.99468994,-38.77624512,241.84935,241.7069092,14.89988518,208594.3146,0.1502838135,-0.04441833496,-0.9884185791,208594.2772,-0.006468285806,0.01663650014,-0.00898390729,208591.8108,0,3.789087,101.2402,,,
1591401239.58,13.56,341,1591401220,1.301263484,103.835952,17.39661,12.20711708,7000.092435,1591401240,287.3162842,-43.31298828,-39.30810547,241.8525543,241.7101135,14.89985657,208594.3545,0.1439208984,-0.04356384277,-0.9853210449,208594.3171,-0.009363141842,0.00727469055,-0.009458216839,208591.8108,0,3.789087,101.2402,,,
1591401239.63,13.61,342,1591401220,1.301263484,103.835952,17.39661,12.20711708,7000.092435,1591401240,289.4212646,-43.67932129,-39.77734375,241.8553314,241.7128906,14.899827,208594.3944,0.1416931152,-0.04295349121,-0.9832000732,208594.357,-0.01091496553,0.005356948357,-0.011445201,208591.8108,0,3.789087,101.2402,,,
1591401239.66,13.64,343,1591401220,1.301263484,103.835952,17.39661,12.20711708,7000.092435,1591401240,289.4212646,-43.67932129,-39.77734375,241.8553314,241.7128906,14.899827,208594.4343,0.1412963867,-0.0426940918,-0.9839935303,208594.3969,-0.01437787432,0.003079679562,-0.0112989936,208591.8108,0,3.789087,101.2402,,,
1591401239.70,13.67,344,1591401220,1.301263484,103.835952,17.39661,12.20711708,7000.092435,1591401240,289.5919189,-45.40783691,-40.00823975,241.856369,241.7139282,14.8998003,208594.4742,0.1485290527,-0.0414276123,-0.9845428467,208594.4368,-0.0131014213,0.0115637118,-0.01123188157,208591.8108,0,3.789087,101.2402,,,
1591401239.76,13.74,345,1591401220,1.301263484,103.835952,17.39661,12.20711708,7000.092435,1591401240,288.2137451,-46.92999268,-40.01721191,241.8579254,241.7154846,14.89977074,208594.5142,0.1406707764,-0.04443359375,-0.9904327393,208594.4767,-0.01298184507,0.01772360317,-0.01222231146,208591.8108,0,3.789087,101.2402,,,
1591401239.78,13.75,346,1591401220,1.301263484,103.835952,17.39661,12.20711708,7000.092435,1591401240,287.0960693,-47.07559204,-41.49786377,241.8618622,241.7194214,14.89974213,208594.5541,0.1529693604,-0.04428100586,-0.9904632568,208594.5167,-0.009845972992,0.007689078804,-0.01247664355,208591.8108,0,3.789087,101.2402,,,
1591401239.82,13.79,347,1591401220,1.301263484,103.835952,17.39661,12.20711708,7000.092435,1591401240,287.0960693,-47.07559204,-41.49786377,241.8618622,241.7194214,14.89974213,208594.594,0.1502075195,-0.04592895508,-0.9960784912,208594.5566,-0.009553557262,0.01341434196,-0.01232803892,208591.8108,0,3.789087,101.2402,,,
1591401239.87,13.85,348,1591401220,1.301263484,103.835952,17.39661,12.20711708,7000.092435,1591401240,283.4971924,-45.96810913,-43.41452026,241.8705597,241.7281189,14.89968586,208594.6339,0.1516571045,-0.04272460938,-0.993850708,208594.5965,-0.01006381959,0.01759923436,-0.01353311911,208591.8108,0,3.789087,101.2402,,,
1591401239.90,13.87,349,1591401220,1.301263484,103.835952,17.39661,12.20711708,7000.092435,1591401240,283.4971924,-45.96810913,-43.41452026,241.8705597,241.7281189,14.89968586,208594.6738,0.1505279541,-0.04182434082,-1.000305176,208594.6364,-0.01311606821,0.01088087726,-0.0103783384,208591.8108,0,3.789087,101.2402,,,
1591401239.94,13.91,350,1591401220,1.301263484,103.835952,17.39661,12.20711708,7000.092435,1591401240,281.701416,-45.78540039,-43.37637329,241.8756866,241.7332458,14.8996582,208594.7138,0.1541748047,-0.03866577148,-1.002502441,208594.6763,-0.01246918645,0.01272804569,-0.01203082968,208591.8108,0,3.789087,101.2402,,,
1591401239.99,13.97,351,1591401220,1.301263484,103.835952,17.39661,12.20711708,7000.092435,1591401240,280.4959717,-46.3192749,-41.61889648,241.8819885,241.7395477,14.89963055,208594.7537,0.1482849121,-0.0425567627,-0.9844512939,208594.7163,-0.006637662649,0.01462661289,-0.01276266668,208591.8108,0,3.789087,101.2402,,,
1591401240.02,13.99,352,1591401220,1.301263484,103.835952,17.39661,12.20711708,7000.092435,1591401240,280.4959717,-46.3192749,-41.61889648,241.8819885,241.7395477,14.89963055,208594.7936,0.1550292969,-0.0361328125,-1.00289917,208594.7562,-0.0104592992,0.009545568377,-0.01320874598,208591.8108,0,3.789087,101.2402,,,
1591401240.06,14.03,353,1591401220,1.301263484,103.835952,17.39661,12.20711708,7000.092435,1591401240,280.9581299,-47.21853638,-40.59558105,241.8891602,241.7467194,14.89960384,208594.8335,0.1515960693,-0.03645324707,-0.9928131104,208594.7961,-0.009214537218,0.01253549941,-0.01125425193,208591.8108,0,3.789087,101.2402,,,
1591401240.11,14.09,354,1591401220,1.301263484,103.835952,17.39661,12.20711708,7000.092435,1591401240,282.1599121,-48.92907715,-39.75900269,241.8972015,241.7547607,14.89957619,208594.8734,0.1541748047,-0.03875732422,-0.9904022217,208594.836,-0.01179167815,-0.001539573423,-0.01198289357,208591.8108,0,3.789087,101.2402,,,
1591401240.14,14.11,355,1591401220,1.301263484,103.835952,17.39661,12.20711708,7000.092435,1591401240,283.5924072,-51.41662598,-38.97583008,241.9044037,241.7619629,14.89954853,208594.9133,0.153503418,-0.03761291504,-0.9876861572,208594.8759,-0.01601332054,-0.005270662252,-0.01294003334,208591.8108,0,3.789087,101.2402,,,
1591401240.18,14.15,356,1591401220,1.301263484,103.835952,17.39661,12.20711708,7000.092435,1591401240,284.3442383,-55.24752808,-38.76803589,241.911026,241.7685852,14.89952374,208594.9533,0.1552429199,-0.03886413574,-0.9993591309,208594.9158,-0.009170861915,0.009628659114,-0.01318930555,208591.8108,0,3.789087,101.2402,,,
1591401240.23,14.21,357,1591401220,1.301263484,103.835952,17.39661,12.20711708,7000.092435,1591401240,283.8894043,-59.47460938,-39.05245972,241.9178467,241.7754059,14.89949608,208594.9932,0.1524047852,-0.03936767578,-0.9895019531,208594.9558,-0.02299799398,-0.01654755138,-0.0134641435,208591.8108,0,3.789087,101.2402,,,
1591401240.26,14.23,358,1591401220,1.301263484,103.835952,17.39661,12.20711708,7000.092435,1591401240,283.8894043,-59.47460938,-39.05245972,241.9178467,241.7754059,14.89949608,208595.0331,0.1559448242,-0.04191589355,-0.9906311035,208594.9957,-0.01447108481,-0.009448628873,-0.01393818576,208591.8108,0,3.789087,101.2402,,,
1591401240.30,14.27,359,1591401220,1.301263484,103.835952,17.39661,12.20711708,7000.092435,1591401240,281.5716553,-62.7749939,-38.9163208,241.9232941,241.7808533,14.89947033,208595.073,0.150894165,-0.04351806641,-0.9910888672,208595.0356,-0.01352379844,-0.0004098604841,-0.0131259216,208591.8108,0,3.789087,101.2402,,,
1591401240.35,14.33,360,1591401220,1.301263484,103.835952,17.39661,12.20711708,7000.092435,1591401240,277.8546143,-64.35473633,-39.18981934,241.9286346,241.7861938,14.89944267,208595.1129,0.1523590088,-0.04264831543,-0.99168396,208595.0755,-0.008952748962,0.01330222283,-0.01319889259,208591.8108,0,3.789087,101.2402,,,
1591401240.38,14.35,361,1591401220,1.301263484,103.835952,17.39661,12.20711708,7000.092435,1591401240,273.8117676,-63.91152954,-39.02905273,241.9351959,241.7927551,14.89941788,208595.1528,0.1486206055,-0.04026794434,-0.9929962158,208595.1154,-0.005610747728,0.01715155691,-0.01074612141,208591.8108,0,3.789087,101.2402,,,
1591401240.42,14.39,362,1591401220,1.301263484,103.835952,17.39661,12.20711708,7000.092435,1591401240,273.8117676,-63.91152954,-39.02905273,241.9351959,241.7927551,14.89941788,208595.1928,0.1458892822,-0.03828430176,-0.9868469238,208595.1553,-0.01059219055,0.007536213379,-0.01467561536,208591.8108,0,3.789087,101.2402,,,
1591401240.48,14.45,363,1591401220,1.301263484,103.835952,17.39661,12.20711708,7000.092435,1591401240,266.137085,-62.66506958,-38.56842041,241.9494324,241.8069916,14.89936447,208595.2327,0.146484375,-0.0417175293,-0.9886779785,208595.1953,-0.01095384825,0.0005166532355,-0.0123831667,208592.7685,0,4.515724,101.2315,,,
1591401240.50,14.47,364,1591401220,1.301263484,103.835952,17.39661,12.20711708,7000.092435,1591401240,266.137085,-62.66506958,-38.56842041,241.9494324,241.8069916,14.89936447,208595.2726,0.1509399414,-0.03730773926,-0.9947814941,208595.2352,-0.01070777141,0.008096542209,-0.01464365702,208592.7685,0,4.515724,101.2315,,,
1591401240.54,14.51,365,1591401220,1.301263484,103.835952,17.39661,12.20711708,7000.092435,1591401241,263.1431885,-61.96047974,-38.20050049,241.9602203,241.8177795,14.89933872,208595.3125,0.1385955811,-0.03175354004,-0.9941711426,208595.2751,-0.01335948147,-0.002157959389,-0.01260767039,208592.7685,0,4.515724,101.2315,,,
1591401240.59,14.57,366,1591401220,1.301263484,103.835952,17.39661,12.20711708,7000.092435,1591401241,261.1550293,-60.70013428,-38.30377197,241.9691315,241.8266907,14.89931297,208595.3524,0.1346130371,-0.03611755371,-0.9859771729,208595.315,-0.02709846199,-0.03343998268,-0.01578854956,208592.7685,0,4.515724,101.2315,,,
1591401240.62,14.59,367,1591401220,1.301263484,103.835952,17.39661,12.20711708,7000.092435,1591401241,261.1550293,-60.70013428,-38.30377197,241.9691315,241.8266907,14.89931297,208595.3923,0.1396636963,-0.03828430176,-1.005081177,208595.3549,-0.01102095935,0.009540508501,-0.01646818966,208592.7685,0,4.515724,101.2315,,,
1591401240.65,14.63,368,1591401220,1.301263484,103.835952,17.39661,12.20711708,7000.092435,1591401241,260.5140381,-58.44396973,-39.4012146,241.9782867,241.8358459,14.89928818,208595.4323,0.1365966797,-0.03816223145,-1.00227356,208595.3948,-0.002337722806,0.03072941676,-0.01238982379,208592.7685,0,4.515724,101.2315,,,
1591401240.71,14.69,369,1591401220,1.301263484,103.835952,17.39661,12.20711708,7000.092435,1591401241,259.6173096,-56.43661499,-40.98843384,241.9863281,241.8438873,14.89926338,208595.4722,0.1394805908,-0.03274536133,-0.9955291748,208595.4348,-0.01473100949,0.008510930464,-0.01284362655,208592.7685,0,4.515724,101.2315,,,
1591401240.73,14.71,370,1591401220,1.301263484,103.835952,17.39661,12.20711708,7000.092435,1591401241,258.9638672,-54.3288269,-42.72189331,241.9954987,241.8530579,14.89923859,208595.5121,0.1371459961,-0.03526306152,-0.9974975586,208595.4747,-0.01658030786,-0.01523141749,-0.01441888697,208592.7685,0,4.515724,101.2315,,,
1591401240.77,14.75,371,1591401220,1.301263484,103.835952,17.39661,12.20711708,7000.092435,1591401241,259.3267822,-51.44116211,-45.26010132,242.0044708,241.86203,14.89921284,208595.552,0.1223907471,-0.03578186035,-1.004089355,208595.5146,-0.008502141573,0.01241672225,-0.01396961138,208592.7685,0,4.515724,101.2315,,,
