loggingTime,loggingTimeElapsed,loggingSample,locationTimestamp_since1970,locationLatitude,locationLongitude,locationAltitude,locationVerticalAccuracy,locationHorizontalAccuracy,locationHeadingTimestamp_since1970,locationHeadingX,locationHeadingY,locationHeadingZ,locationTrueHeading,locationMagneticHeading,locationHeadingAccuracy,accelerometerTimestamp_sinceReboot,accelerometerAccelerationX,accelerometerAccelerationY,accelerometerAccelerationZ,gyroTimestamp_sinceReboot,gyroRotationX,gyroRotationY,gyroRotationZ,altimeterTimestamp_sinceReboot,altimeterReset,altimeterRelativeAltitude,altimeterPressure
1591402890.13516,0,1,1591402876.20435,1.30128699869126,103.835955643589,17.39661,12.2071170806884,7013.64575555636,1591402890.09121,-16.3262939453125,-10.9812316894531,-24.031494140625,89.685546875,89.543113708496,13.0585088729858,210244.908945,0.093353271484375,-0.087203979492188,-1.00941467285156,210244.870279,-0.009914149530232,0.097620569169521,-0.005957757588476,210242.051987,1,-0.6024489,101.3028
1591402890.16085,0.025689840316773,2,1591402876.20435,1.30128699869126,103.835955643589,17.39661,12.2071170806884,7013.64575555636,1591402890.14107,-18.22509765625,-12.0178527832031,-23.1666870117187,91.1298675537109,90.987434387207,13.057499885559,210244.948861,0.08782958984375,-0.086685180664063,-1.00009155273437,210244.910195,-0.007189203519374,-0.032691635191441,-0.00932905357331,210242.051987,0,-0.6024489,101.3028
1591402890.2006,0.065439939498901,3,1591402876.20435,1.30128699869126,103.835955643589,17.39661,12.2071170806884,7013.64575555636,1591402890.19103,-19.077880859375,-12.4996948242187,-22.4059753417968,92.5133438110351,92.3709106445312,13.0565013885498,210244.988778,0.095321655273438,-0.0848388671875,-1.00834655761718,210244.950111,-0.010357566177845,0.041359424591064,-0.012283564545214,210242.051987,0,-0.6024489,101.3028
1591402890.2483,0.113139867782593,4,1591402876.20435,1.30128699869126,103.835955643589,17.39661,12.2071170806884,7013.64575555636,1591402890.24239,-19.9478759765625,-12.8372192382812,-21.3478088378906,93.8239669799804,93.6815338134765,13.0555114746093,210245.028694,0.092300415039063,-0.085418701171875,-1.00138854980468,210244.990028,-0.008353004232049,-0.002215217333287,-0.009148490615189,210242.051987,0,-0.6024489,101.3028
1591402890.2805,0.145339965820313,5,1591402876.20435,1.30128699869126,103.835955643589,17.39661,12.2071170806884,7013.64575555636,1591402890.24239,-19.9478759765625,-12.8372192382812,-21.3478088378906,93.8239669799804,93.6815338134765,13.0555114746093,210245.068611,0.091766357421875,-0.08270263671875,-0.991714477539062,210245.029944,-0.008471781387925,0.015264440327883,-0.007679224945605,210242.051987,0,-0.6024489,101.3028
1591402890.32029,0.185129880905151,6,1591402876.20435,1.30128699869126,103.835955643589,17.39661,12.2071170806884,7013.64575555636,1591402890.29078,-20.3935546875,-12.9145812988281,-20.6826477050781,95.0632019042968,94.9207687377929,13.0545330047607,210245.108527,0.086746215820313,-0.082794189453125,-0.998825073242187,210245.069861,-0.009394301101565,-0.013427391648293,-0.010094179771841,210242.051987,0,-0.6024489,101.3028
1591402890.36756,0.232400178909302,7,1591402876.20435,1.30128699869126,103.835955643589,17.39661,12.2071170806884,7013.64575555636,1591402890.341,-20.2135009765625,-13.3242492675781,-20.1346740722656,96.2667388916015,96.1243057250976,13.0535631179809,210245.148443,0.088668823242188,-0.084823608398438,-0.99737548828125,210245.109777,-0.008680307306349,0.006441121455282,-0.007232080213726,210242.051987,0,-0.6024489,101.3028
1591402890.40019,0.265030145645142,8,1591402876.20435,1.30128699869126,103.835955643589,17.39661,12.2071170806884,7013.64575555636,1591402890.39096,-20.3660888671875,-14.2276611328125,-19.1963500976562,97.4899826049804,97.3475494384765,13.0526037216186,210245.18836,0.0814208984375,-0.08251953125,-0.992645263671875,210245.149693,-0.007172957994044,-0.001215733005665,-0.008375375531614,210242.051987,0,-0.6024489,101.3028
1591402890.43999,0.304830074310303,9,1591402876.20435,1.30128699869126,103.835955643589,17.39661,12.2071170806884,7013.64575555636,1591402890.39096,-20.3660888671875,-14.2276611328125,-19.1963500976562,97.4899826049804,97.3475494384765,13.0526037216186,210245.228276,0.081893920898438,-0.080413818359375,-0.996673583984375,210245.18961,-0.010149306617677,0.001554487156682,-0.01187130715698,210242.051987,0,-0.6024489,101.3028
1591402890.49086,0.355700254440308,10,1591402876.20435,1.30128699869126,103.835955643589,17.39661,12.2071170806884,7013.64575555636,1591402890.44048,-23.1212158203125,-15.8561096191406,-17.6512451171875,98.6987609863281,98.5563278198242,13.0516529083252,210245.268193,0.083740234375,-0.078338623046875,-0.99945068359375,210245.229526,-0.005542570725083,0.010101902298629,-0.00941720418632,210242.051987,0,-0.6024489,101.3028
1591402890.51995,0.384789943695068,11,1591402876.20435,1.30128699869126,103.835955643589,17.39661,12.2071170806884,7013.64575555636,1591402890.49026,-27.28857421875,-17.1128845214843,-15.5433349609375,99.8169479370117,99.6745147705078,13.0507125854492,210245.308109,0.079696655273438,-0.080352783203125,-0.998031616210937,210245.269443,-0.00643206667155,0.007739412598312,-0.009465939365327,210242.051987,0,-0.6024489,101.3028
1591402890.5598,0.42464017868042,12,1591402876.20435,1.30128699869126,103.835955643589,17.39661,12.2071170806884,7013.64575555636,1591402890.54029,-29.33203125,-16.5844421386718,-14.4081726074218,100.762794494628,100.620361328125,13.049780845642,210245.348025,0.081573486328125,-0.083023071289063,-0.999008178710937,210245.309359,-0.007460845634341,0.01044678222388,-0.00928111653775,210242.051987,0,-0.6024489,101.3028
1591402890.60935,0.47418999671936,13,1591402876.20435,1.30128699869126,103.835955643589,17.39661,12.2071170806884,7013.64575555636,1591402890.5901,-27.161865234375,-14.8954772949218,-13.8670654296875,101.579544067382,101.437110900878,13.0488576889038,210245.387942,0.082839965820313,-0.08514404296875,-0.999664306640625,210245.349275,-0.006905043963343,0.009368734434247,-0.006721551995724,210242.051987,0,-0.6024489,101.3028
1591402890.6397,0.504539966583252,14,1591402876.20435,1.30128699869126,103.835955643589,17.39661,12.2071170806884,7013.64575555636,1591402890.5901,-27.161865234375,-14.8954772949218,-13.8670654296875,101.579544067382,101.437110900878,13.0488576889038,210245.427858,0.086151123046875,-0.084732055664063,-1.00799560546875,210245.389192,-0.005043494515121,0.011125355027616,-0.0087402286008,210242.051987,0,-0.6024489,101.3028
1591402890.67967,0.544510126113892,15,1591402876.20435,1.30128699869126,103.835955643589,17.39661,12.2071170806884,7013.64575555636,1591402890.64007,-24.281982421875,-14.4652404785156,-13.1982421875,102.389556884765,102.247123718261,13.0479440689086,210245.467775,0.086639404296875,-0.083969116210938,-1.00416564941406,210245.429108,-0.007659517694265,0.015530756674707,-0.008320514112711,210242.051987,0,-0.6024489,101.3028
1591402890.72738,0.592219829559326,16,1591402876.20435,1.30128699869126,103.835955643589,17.39661,12.2071170806884,7013.64575555636,1591402890.6899,-23.7420654296875,-15.8540649414062,-12.1705322265625,103.315254211425,103.172821044921,13.0470390319824,210245.507691,0.090957641601563,-0.081039428710938,-1.003662109375,210245.469025,-0.006187854800373,0.010139453224838,-0.007271228823811,210242.051987,0,-0.6024489,101.3028
1591402890.7598,0.624640226364136,17,1591402876.20435,1.30128699869126,103.835955643589,17.39661,12.2071170806884,7013.64575555636,1591402890.73995,-24.2457275390625,-17.220458984375,-10.6254272460937,104.326309204101,104.183876037597,13.046142578125,210245.547607416,0.091583251953125,-0.080780029296875,-1.00279235839843,210245.508941,-0.005821403581649,0.002559031359851,-0.011481420136988,210242.051987,0,-0.6024489,101.3028
1591402890.79941,0.664250135421753,18,1591402876.20435,1.30128699869126,103.835955643589,17.39661,12.2071170806884,7013.64575555636,1591402890.78975,-23.4954833984375,-17.4504699707031,-9.30960083007812,105.355407714843,105.212974548339,13.0452547073364,210245.587524416,0.091522216796875,-0.08154296875,-0.999313354492187,210245.548857416,-0.009856891818345,0.007338873110712,-0.009363940916955,210242.051987,0,-0.6024489,101.3028
1591402890.84703,0.711869955062866,19,1591402876.20435,1.30128699869126,103.835955643589,17.39661,12.2071170806884,7013.64575555636,1591402890.83964,-21.4710693359375,-17.9958190917968,-8.10382080078125,105.994110107421,105.851676940918,13.0445842742919,210245.627440416,0.091598510742188,-0.081649780273438,-0.991851806640625,210245.588774416,-0.007826764136553,-0.0026740799658,-0.00963078904897,210244.014993,0,0,101.2376
1591402890.87917,0.744009971618652,20,1591402876.20435,1.30128699869126,103.835955643589,17.39661,12.2071170806884,7013.64575555636,1591402890.83964,-21.4710693359375,-17.9958190917968,-8.10382080078125,105.994110107421,105.851676940918,13.0445842742919,210245.667357416,0.090301513671875,-0.08135986328125,-0.99847412109375,210245.628690416,-0.008015582337976,-0.002682069549337,-0.009343167766929,210244.014993,0,0,101.2376
1591402890.91923,0.784070014953613,21,1591402876.20435,1.30128699869126,103.835955643589,17.39661,12.2071170806884,7013.64575555636,1591402890.88952,-18.867431640625,-18.3099975585937,-7.271484375,105.994407653808,105.851974487304,13.0442304611206,210245.707273416,0.09039306640625,-0.083953857421875,-0.999984741210937,210245.668607416,-0.008514658547938,-0.005183310247958,-0.009917878545821,210244.014993,0,0,101.2376
1591402890.97044,0.835280179977417,22,1591402876.20435,1.30128699869126,103.835955643589,17.39661,12.2071170806884,7013.64575555636,1591402890.93922,-16.653564453125,-19.6273803710937,-6.17483520507812,105.995323181152,105.852890014648,13.0438823699951,210245.747189416,0.089523315429688,-0.085617065429688,-0.9970703125,210245.708523416,-0.005913549102843,-0.003609648440033,-0.006946589332074,210244.014993,0,0,101.2376
1591402890.99895,0.863790273666382,23,1591402876.20435,1.30128699869126,103.835955643589,17.39661,12.2071170806884,7013.64575555636,1591402890.98963,-14.9666748046875,-21.0403137207031,-4.58447265625,105.994476318359,105.852043151855,13.0435380935668,210245.787106416,0.08770751953125,-0.08612060546875,-0.996109008789062,210245.748439416,-0.008396946825087,-0.001630919869058,-0.010678743012249,210244.014993,0,0,101.2376
1591402891.03879,0.903629779815674,24,1591402876.20435,1.30128699869126,103.835955643589,17.39661,12.2071170806884,7013.64575555636,1591402890.98963,-14.9666748046875,-21.0403137207031,-4.58447265625,105.994476318359,105.852043151855,13.0435380935668,210245.827022416,0.085540771484375,-0.091018676757813,-0.999954223632812,210245.788356416,-0.005752427969128,0.000990695902146,-0.010780209675431,210244.014993,0,0,101.2376
1591402891.089,0.953840017318726,25,1591402876.20435,1.30128699869126,103.835955643589,17.39661,12.2071170806884,7013.64575555636,1591402891.0393,-14.338623046875,-22.929931640625,-3.20523071289062,105.995552062988,105.853118896484,13.0431985855102,210245.866939416,0.083541870117188,-0.092041015625,-0.991943359375,210245.828272416,-0.010170079767704,0.001749430550262,-0.007260575890541,210244.014993,0,0,101.2376
1591402891.11855,0.983390092849731,26,1591402876.20435,1.30128699869126,103.835955643589,17.39661,12.2071170806884,7013.64575555636,1591402891.08902,-13.028564453125,-23.7592468261718,-1.66799926757812,105.99575805664,105.853324890136,13.0428628921508,210245.906855416,0.0777587890625,-0.08880615234375,-0.992507934570312,210245.868189416,-0.009014533832669,0.002709766384214,-0.009158611297607,210244.014993,0,0,101.2376
1591402891.15851,1.02335000038147,27,1591402876.20435,1.30128699869126,103.835955643589,17.39661,12.2071170806884,7013.64575555636,1591402891.13907,-10.1171875,-24.55859375,-0.525970458984375,105.995010375976,105.852577209472,13.042531967163,210245.946771416,0.082656860351563,-0.089569091796875,-0.993698120117187,210245.908105416,-0.010886469855905,0.00453296629712,-0.009815879166126,210244.014993,0,0,101.2376
1591402891.20975,1.07458996772766,28,1591402876.20435,1.30128699869126,103.835955643589,17.39661,12.2071170806884,7013.64575555636,1591402891.18897,-7.262939453125,-25.873046875,0.6531982421875,105.993728637695,105.851295471191,13.0422058105468,210245.986688416,0.079864501953125,-0.094390869140625,-1.00161743164062,210245.948021416,-0.009264072403312,0.008273642510176,-0.00798415672034,210244.014993,0,0,101.2376
1591402891.23848,1.10331988334656,29,1591402876.20435,1.30128699869126,103.835955643589,17.39661,12.2071170806884,7013.64575555636,1591402891.18897,-7.262939453125,-25.873046875,0.6531982421875,105.993728637695,105.851295471191,13.0422058105468,210246.026604416,0.082107543945313,-0.091079711914063,-1.00126647949218,210245.987938416,-0.006886668037623,0.003895139321685,-0.009124255739152,210244.014993,0,0,101.2376
1591402891.27832,1.14316010475159,30,1591402876.20435,1.30128699869126,103.835955643589,17.39661,12.2071170806884,7013.64575555636,1591402891.23873,-5.38720703125,-27.5310974121093,2.00030517578125,105.995086669921,105.852653503418,13.0418825149536,210246.066521416,0.080703735351563,-0.094970703125,-1.01033020019531,210246.027854416,-0.01167449913919,0.015698535367846,-0.011295530945063,210244.014993,0,0,101.2376
1591402891.32816,1.19300007820129,31,1591402876.20435,1.30128699869126,103.835955643589,17.39661,12.2071170806884,7013.64575555636,1591402891.28855,-3.774169921875,-28.9238586425781,3.19708251953125,105.993988037109,105.851554870605,13.0415639877319,210246.106437416,0.087448120117188,-0.093856811523438,-0.996780395507812,210246.067771416,-0.004952148068696,0.01732998713851,-0.009062737226486,210244.014993,0,0,101.2376
1591402891.35856,1.22339987754822,32,1591402876.20435,1.30128699869126,103.835955643589,17.39661,12.2071170806884,7013.64575555636,1591402891.33854,-1.7581787109375,-30.1705322265625,4.6842041015625,108.877990722656,108.735557556152,13.0408306121826,210246.146353416,0.085983276367188,-0.091964721679688,-1.00889587402343,210246.107687416,-0.004526840988547,0.012929380871356,-0.01067235134542,210244.014993,0,0,101.2376
1591402891.39804,1.2628800868988,33,1591402876.20435,1.30128699869126,103.835955643589,17.39661,12.2071170806884,7013.64575555636,1591402891.38852,-0.125244140625,-31.69189453125,6.0272216796875,112.490432739257,112.347999572753,13.0400009155273,210246.186270416,0.093048095703125,-0.09478759765625,-1.00068664550781,210246.147603416,-0.009193232282996,0.010661698877811,-0.007008108310401,210244.014993,0,0,101.2376
1591402891.44956,1.31439995765686,34,1591402876.20435,1.30128699869126,103.835955643589,17.39661,12.2071170806884,7013.64575555636,1591402891.43837,0.5147705078125,-33.0628356933593,7.33865356445312,115.99983215332,115.857398986816,13.0391788482666,210246.226186416,0.090591430664063,-0.09454345703125,-1.00300598144531,210246.187520416,-0.008125570602715,0.000207726567169,-0.010760768316686,210244.014993,0,0,101.2376
1591402891.47793,1.34277009963989,35,1591402876.20435,1.30128699869126,103.835955643589,17.39661,12.2071170806884,7013.64575555636,1591402891.43837,0.5147705078125,-33.0628356933593,7.33865356445312,115.99983215332,115.857398986816,13.0391788482666,210246.266103416,0.093673706054688,-0.096389770507813,-1.00318908691406,210246.227436416,-0.010030795820057,-0.00084395572776,-0.011781824752688,210244.014993,0,0,101.2376
1591402891.51777,1.38261008262634,36,1591402876.20435,1.30128699869126,103.835955643589,17.39661,12.2071170806884,7013.64575555636,1591402891.48818,-0.1529541015625,-35.0448913574218,9.052734375,119.326286315918,119.183853149414,13.0383672714233,210246.306019416,0.090621948242188,-0.098281860351563,-1.00521850585937,210246.267353416,-0.009019327349961,-0.004043211229146,-0.009379653260112,210244.014993,0,0,101.2376
1591402891.56931,1.43414998054504,37,1591402876.20435,1.30128699869126,103.835955643589,17.39661,12.2071170806884,7013.64575555636,1591402891.53852,-0.2760009765625,-36.1569213867187,10.4298095703125,122.459159851074,122.31672668457,13.0375623703002,210246.345935416,0.0897216796875,-0.095199584960938,-0.999130249023437,210246.307269416,-0.010432134382427,-0.011994877830148,-0.010410030372441,210244.014993,0,0,101.2376
1591402891.59768,1.46252012252808,38,1591402876.20435,1.30128699869126,103.835955643589,17.39661,12.2071170806884,7013.64575555636,1591402891.58841,1.0361328125,-36.4473571777343,11.1827087402343,125.480529785156,125.338096618652,13.0367670059204,210246.385852416,0.102935791015625,-0.090835571289063,-0.994888305664062,210246.347185416,-0.010726147331297,-0.010803112760186,-0.009596168063581,210244.014993,0,0,101.2376
1591402891.63746,1.50229978561401,39,1591402876.20435,1.30128699869126,103.835955643589,17.39661,12.2071170806884,7013.64575555636,1591402891.58841,1.0361328125,-36.4473571777343,11.1827087402343,125.480529785156,125.338096618652,13.0367670059204,210246.425768416,0.084915161132813,-0.094207763671875,-0.995285034179687,210246.387102416,-0.017432520166039,-0.021939653903246,-0.009152752347291,210244.014993,0,0,101.2376
1591402891.69007,1.5549099445343,40,1591402876.20435,1.30128699869126,103.835955643589,17.39661,12.2071170806884,7013.64575555636,1591402891.68787,3.04736328125,-37.9419555664062,13.267822265625,131.336395263671,131.193954467773,13.0352001190185,210246.465684416,0.079681396484375,-0.098480224609375,-0.996231079101562,210246.427018416,-0.009752229787409,-0.007424360606819,-0.010214287787676,210244.014993,0,0,101.2376
1591402891.71742,1.58225989341736,41,1591402876.20435,1.30128699869126,103.835955643589,17.39661,12.2071170806884,7013.64575555636,1591402891.68787,3.04736328125,-37.9419555664062,13.267822265625,131.336395263671,131.193954467773,13.0352001190185,210246.505601416,0.078231811523438,-0.100067138671875,-0.99072265625,210246.466934416,-0.012254003435373,0.007095726206899,-0.009823602624238,210244.014993,0,0,101.2376
1591402891.75722,1.6220600605011,42,1591402876.20435,1.30128699869126,103.835955643589,17.39661,12.2071170806884,7013.64575555636,1591402891.73764,3.2315673828125,-38.6208801269531,13.6560363769531,134.092193603515,133.949752807617,13.0344295501709,210246.545517041,0.081634521484375,-0.1007080078125,-0.9954833984375,210246.506851416,-0.007237140089273,0.013991981744766,-0.009904562495649,210244.014993,0,0,101.2376
1591402891.80687,1.67171025276184,43,1591402876.20435,1.30128699869126,103.835955643589,17.39661,12.2071170806884,7013.64575555636,1591402891.78749,3.9432373046875,-39.1130981445312,14.0186462402343,136.739608764648,136.59716796875,13.0336656570434,210246.585434041,0.080474853515625,-0.096527099609375,-0.995941162109375,210246.546767041,-0.005230714567006,0.014537663199008,-0.010297644883394,210244.014993,0,0,101.2376
1591402891.83717,1.70200991630554,44,1591402876.20435,1.30128699869126,103.835955643589,17.39661,12.2071170806884,7013.64575555636,1591402891.78749,3.9432373046875,-39.1130981445312,14.0186462402343,136.739608764648,136.59716796875,13.0336656570434,210246.625350041,0.083099365234375,-0.09716796875,-1.00242614746093,210246.586684041,-0.00879162736237,0.018262360244989,-0.011671835556626,210244.014993,0,0,101.2376
1591402891.87702,1.74185991287231,45,1591402876.20435,1.30128699869126,103.835955643589,17.39661,12.2071170806884,7013.64575555636,1591402891.83751,4.673095703125,-39.6954650878906,14.3379516601562,139.290298461914,139.147857666015,13.0329113006591,210246.665266041,0.087860107421875,-0.101364135742187,-1.01029968261718,210246.626600041,-0.005396363325417,0.023783626034856,-0.010049970820546,210245.047575,0,-0.108335,101.2389
1591402891.92646,1.79130005836487,46,1591402876.20435,1.30128699869126,103.835955643589,17.39661,12.2071170806884,7013.64575555636,1591402891.88753,4.2447509765625,-40.0711975097656,15.1376647949218,141.703979492187,141.561538696289,13.0321636199951,210246.705183041,0.088790893554688,-0.101272583007812,-1.01423645019531,210246.666516041,-0.005893575493246,0.019465310499072,-0.008200937882066,210245.047575,0,-0.108335,101.2389
1591402891.9573,1.82213997840881,47,1591402876.20435,1.30128699869126,103.835955643589,17.39661,12.2071170806884,7013.64575555636,1591402891.93728,3.703857421875,-40.4461975097656,15.7073669433593,143.941741943359,143.79930114746,13.0314226150512,210246.745099041,0.092697143554688,-0.100601196289062,-1.01246643066406,210246.706433041,-0.00732555706054,0.012147476896644,-0.008102134801447,210245.047575,0,-0.108335,101.2389
1591402891.99679,1.86162996292114,48,1591402876.20435,1.30128699869126,103.835955643589,17.39661,12.2071170806884,7013.64575555636,1591402891.98728,3.8751220703125,-40.2613525390625,16.0386657714843,146.04930114746,145.906860351562,13.0306921005249,210246.785016041,0.094757080078125,-0.095291137695313,-1.01533508300781,210246.746349041,-0.008004929870367,0.006485329940915,-0.008212389424443,210245.047575,0,-0.108335,101.2389
1591402892.04551,1.91034984588623,49,1591402876.20435,1.30128699869126,103.835955643589,17.39661,12.2071170806884,7013.64575555636,1591402892.03714,4.370361328125,-40.4591369628906,16.2872924804687,148.066650390625,147.924209594726,13.0299730300903,210246.824932041,0.096969604492188,-0.092239379882813,-1.01022338867187,210246.786266041,-0.007607852108777,-0.001792573719285,-0.011815646663308,210245.047575,0,-0.108335,101.2389
1591402892.0766,1.94144010543823,50,1591402876.20435,1.30128699869126,103.835955643589,17.39661,12.2071170806884,7013.64575555636,1591402892.03714,4.370361328125,-40.4591369628906,16.2872924804687,148.066650390625,147.924209594726,13.0299730300903,210246.864848041,0.0928955078125,-0.097702026367188,-1.01142883300781,210246.826182041,-0.012949886731803,-0.015672702342272,-0.010514159686863,210245.047575,0,-0.108335,101.2389
1591402892.11648,1.98132014274597,51,1591402876.20435,1.30128699869126,103.835955643589,17.39661,12.2071170806884,7013.64575555636,1591402892.08692,5.4766845703125,-40.8515625,16.2374267578125,150.029846191406,149.887405395507,13.0292711257934,210246.904765041,0.087722778320313,-0.097930908203125,-0.999923706054687,210246.866098041,-0.01246705558151,-0.010685401037335,-0.009662747383118,210245.047575,0,-0.108335,101.2389
1591402892.16726,2.03210020065308,52,1591402876.20435,1.30128699869126,103.835955643589,17.39661,12.2071170806884,7013.64575555636,1591402892.13726,6.852294921875,-41.3612670898437,16.2933654785156,151.585037231445,151.442596435546,13.02867603302,210246.944681041,0.085678100585938,-0.100189208984375,-0.990921020507812,210246.906015041,-0.011199125088751,-0.008585232309997,-0.010390322655439,210245.047575,0,-0.108335,101.2389
1591402892.19642,2.06125998497009,53,1591402876.20435,1.30128699869126,103.835955643589,17.39661,12.2071170806884,7013.64575555636,1591402892.18724,8.6617431640625,-42.1876831054687,16.4739685058593,151.587142944335,151.444702148437,13.0284767150878,210246.984597041,0.080886840820313,-0.09564208984375,-0.988296508789062,210246.945931041,-0.01053493283689,-0.006533532869071,-0.009847571142018,210245.047575,0,-0.108335,101.2389
1591402892.23613,2.10096979141235,54,1591402876.20435,1.30128699869126,103.835955643589,17.39661,12.2071170806884,7013.64575555636,1591402892.18724,8.6617431640625,-42.1876831054687,16.4739685058593,151.587142944335,151.444702148437,13.0284767150878,210247.024514041,0.0789794921875,-0.098388671875,-0.977096557617187,210246.985847041,-0.010009224526584,-0.007272293791175,-0.007964449934661,210245.047575,0,-0.108335,101.2389
1591402892.28614,2.15097999572754,55,1591402876.20435,1.30128699869126,103.835955643589,17.39661,12.2071170806884,7013.64575555636,1591402892.23664,10.57421875,-42.7579956054687,16.3764953613281,151.585876464843,151.443435668945,13.0282621383667,210247.064430041,0.077590942382813,-0.1002197265625,-0.985794067382812,210247.025764041,-0.010819890536368,0.005148156546056,-0.009411877952516,210245.047575,0,-0.108335,101.2389
1591402892.31617,2.18101000785828,56,1591402876.20435,1.30128699869126,103.835955643589,17.39661,12.2071170806884,7013.64575555636,1591402892.28661,13.0618896484375,-43.6208801269531,16.2672424316406,151.585723876953,151.443283081054,13.028034210205,210247.104347041,0.079299926757813,-0.1031494140625,-0.990280151367187,210247.065680041,-0.008737565018237,0.009281915612519,-0.008113053627312,210245.047575,0,-0.108335,101.2389
1591402892.35601,2.22084999084473,57,1591402876.20435,1.30128699869126,103.835955643589,17.39661,12.2071170806884,7013.64575555636,1591402892.33649,14.92138671875,-44.5328674316406,16.1345825195312,151.588653564453,151.446212768554,13.0278043746948,210247.144263041,0.079833984375,-0.099212646484375,-0.9927978515625,210247.105597041,-0.006084790453315,0.017050888389349,-0.011974637396634,210245.047575,0,-0.108335,101.2389
1591402892.40928,2.27412009239197,58,1591402876.20435,1.30128699869126,103.835955643589,17.39661,12.2071170806884,7013.64575555636,1591402892.38637,16.356201171875,-45.7838134765625,16.1143493652343,151.590438842773,151.447998046875,13.0275754928588,210247.184179041,0.082412719726563,-0.102142333984375,-1.00263977050781,210247.145513041,-0.003592870663852,0.013666809536517,-0.012926717288792,210245.047575,0,-0.108335,101.2389
1591402892.43597,2.30081009864807,59,1591402876.20435,1.30128699869126,103.835955643589,17.39661,12.2071170806884,7013.64575555636,1591402892.38637,16.356201171875,-45.7838134765625,16.1143493652343,151.590438842773,151.447998046875,13.0275754928588,210247.224096041,0.088607788085938,-0.101974487304687,-1.01591491699218,210247.185429041,-0.005976399872452,0.013700099661946,-0.007037935778499,210245.047575,0,-0.108335,101.2389
1591402892.47569,2.34052991867065,60,1591402876.20435,1.30128699869126,103.835955643589,17.39661,12.2071170806884,7013.64575555636,1591402892.43627,18.080810546875,-46.6249694824218,16.1675415039062,151.589859008789,151.44741821289,13.0273494720459,210247.264012041,0.091079711914063,-0.103683471679687,-1.01396179199218,210247.225346041,-0.006301038898528,0.017245832830668,-0.010723484680057,210245.047575,0,-0.108335,101.2389
1591402892.52857,2.39341020584106,61,1591402876.20435,1.30128699869126,103.835955643589,17.39661,12.2071170806884,7013.64575555636,1591402892.48617,20.1136474609375,-47.3448486328125,16.2240600585937,151.590621948242,151.448181152343,13.0271263122558,210247.303929041,0.0897216796875,-0.099746704101563,-1.01593017578125,210247.265262041,-0.008767925202847,0.000138484378112,-0.011868643574417,210245.047575,0,-0.108335,101.2389
1591402892.55594,2.42077994346619,62,1591402876.20435,1.30128699869126,103.835955643589,17.39661,12.2071170806884,7013.64575555636,1591402892.53602,22.0191650390625,-48.3308715820312,16.6015014648437,151.58935546875,151.446914672851,13.0269050598144,210247.343845041,0.090835571289063,-0.096298217773438,-1.01150512695312,210247.305179041,-0.010440390557051,-0.000132625427796,-0.007498928811401,210245.047575,0,-0.108335,101.2389
1591402892.5955,2.46034026145935,63,1591402876.20435,1.30128699869126,103.835955643589,17.39661,12.2071170806884,7013.64575555636,1591402892.58597,23.9493408203125,-49.381103515625,16.4861450195312,151.591552734375,151.449111938476,13.026686668396,210247.383761041,0.092254638671875,-0.098403930664063,-1.00851440429687,210247.345095041,-0.011087005957961,-0.005224855616689,-0.011400726623833,210245.047575,0,-0.108335,101.2389
1591402892.64919,2.51403021812439,64,1591402876.20435,1.30128699869126,103.835955643589,17.39661,12.2071170806884,7013.64575555636,1591402892.63577,25.2132568359375,-50.8957824707031,17.104736328125,151.590377807617,151.447937011718,13.0264701843261,210247.423678041,0.086471557617188,-0.098312377929688,-1.00077819824218,210247.385011041,-0.011881426908076,-0.010063286870718,-0.011059042997658,210245.047575,0,-0.108335,101.2389
1591402892.67547,2.54030990600586,65,1591402876.20435,1.30128699869126,103.835955643589,17.39661,12.2071170806884,7013.64575555636,1591402892.63577,25.2132568359375,-50.8957824707031,17.104736328125,151.590377807617,151.447937011718,13.0264701843261,210247.463594041,0.084365844726563,-0.099777221679688,-0.994216918945312,210247.424928041,-0.014729677699506,-0.013913152739406,-0.008877380751073,210245.047575,0,-0.108335,101.2389
1591402892.71532,2.58015990257263,66,1591402876.20435,1.30128699869126,103.835955643589,17.39661,12.2071170806884,7013.64575555636,1591402892.68565,27.265869140625,-51.614013671875,17.3060607910156,151.589935302734,151.447494506835,13.0262556076049,210247.503510041,0.082412719726563,-0.098556518554688,-0.9921875,210247.464844041,-0.015527294017375,-0.009746903553605,-0.009077650494874,210245.047575,0,-0.108335,101.2389
1591402892.76896,2.63380002975464,67,1591402876.20435,1.30128699869126,103.835955643589,17.39661,12.2071170806884,7013.64575555636,1591402892.73601,30.79052734375,-52.6836242675781,17.2482604980468,151.589599609375,151.447158813476,13.0260438919067,210247.543427541,0.078475952148438,-0.0977783203125,-0.985855102539062,210247.504760041,-0.010675547644496,0.00243785767816,-0.010996990837157,210245.047575,0,-0.108335,101.2389
1591402892.79518,2.66002011299133,68,1591402876.20435,1.30128699869126,103.835955643589,17.39661,12.2071170806884,7013.64575555636,1591402892.78584,34.902099609375,-54.0436706542968,17.5546569824218,151.590591430664,151.448150634765,13.0258350372314,210247.583343541,0.080551147460938,-0.098892211914063,-0.985626220703125,210247.544677541,-0.010281399823725,-0.001043426454999,-0.00910827703774,210245.047575,0,-0.108335,101.2389
1591402892.83499,2.69983005523682,69,1591402876.20435,1.30128699869126,103.835955643589,17.39661,12.2071170806884,7013.64575555636,1591402892.78584,34.902099609375,-54.0436706542968,17.5546569824218,151.590591430664,151.448150634765,13.0258350372314,210247.623260541,0.0777587890625,-0.101806640625,-0.984756469726562,210247.584593541,-0.009117332287133,0.008636364713311,-0.01157995685935,210245.047575,0,-0.108335,101.2389
1591402892.88942,2.75426030158997,70,1591402876.20435,1.30128699869126,103.835955643589,17.39661,12.2071170806884,7013.64575555636,1591402892.88537,43.60693359375,-58.5880126953125,18.8268737792968,151.589218139648,151.44677734375,13.0254230499267,210247.663176541,0.079849243164063,-0.103561401367187,-0.98956298828125,210247.624510541,-0.007710117381066,0.016994962468743,-0.010946657508612,210245.047575,0,-0.108335,101.2389
1591402892.91492,2.77976012229919,71,1591402876.20435,1.30128699869126,103.835955643589,17.39661,12.2071170806884,7013.64575555636,1591402892.88537,43.60693359375,-58.5880126953125,18.8268737792968,151.589218139648,151.44677734375,13.0254230499267,210247.703092541,0.081832885742188,-0.102157592773437,-0.9937744140625,210247.664426541,-0.004900482483208,0.015149657614529,-0.00778388697654,210246.080106,0,0,101.2376
1591402892.95469,2.81953001022339,72,1591402876.20435,1.30128699869126,103.835955643589,17.39661,12.2071170806884,7013.64575555636,1591402892.93514,46.87109375,-61.3481140136718,20.0330810546875,151.58918762207,151.446746826171,13.0252199172973,210247.743009541,0.082199096679688,-0.100860595703125,-0.999252319335937,210247.704342541,-0.002744121244177,0.021751368418336,-0.006209958810359,210246.080106,0,0,101.2376
1591402893.0079,2.8727400302887,73,1591402876.20435,1.30128699869126,103.835955643589,17.39661,12.2071170806884,7013.64575555636,1591402892.98515,49.527099609375,-64.0997924804687,21.3872375488281,151.589752197265,151.447311401367,13.0250177383422,210247.782925541,0.084793090820313,-0.10443115234375,-1.0106201171875,210247.744259541,-0.005792907904834,0.023802535608411,-0.010027334094048,210246.080106,0,0,101.2376
1591402893.03464,2.89948010444641,74,1591402876.20435,1.30128699869126,103.835955643589,17.39661,12.2071170806884,7013.64575555636,1591402892.98515,49.527099609375,-64.0997924804687,21.3872375488281,151.589752197265,151.447311401367,13.0250177383422,210247.822841541,0.0875244140625,-0.1015625,-1.00637817382812,210247.784175541,-0.006583600305021,0.01101803034544,-0.009296296164393,210246.080106,0,0,101.2376
1591402893.07454,2.93938016891479,75,1591402876.20435,1.30128699869126,103.835955643589,17.39661,12.2071170806884,7013.64575555636,1591402893.03501,51.0849609375,-66.5082397460937,22.8418579101562,151.589752197265,151.447311401367,13.0248193740844,210247.862758541,0.092208862304688,-0.103225708007812,-1.01170349121093,210247.824091541,-0.008431834168732,0.00980016682297,-0.012000736780465,210246.080106,0,0,101.2376
1591402893.12844,2.99328017234802,76,1591402876.20435,1.30128699869126,103.835955643589,17.39661,12.2071170806884,7013.64575555636,1591402893.08487,53.18701171875,-67.9688415527343,24.3984069824218,151.58934020996,151.446899414062,13.0246295928955,210247.902674541,0.089141845703125,-0.10137939453125,-1.00662231445312,210247.864008541,-0.007064567413181,0.008626244962215,-0.008464058861136,210246.080106,0,0,101.2376
1591402893.15439,3.01923012733459,77,1591402876.20435,1.30128699869126,103.835955643589,17.39661,12.2071170806884,7013.64575555636,1591402893.13482,54.6068115234375,-68.9239196777343,26.2916259765625,151.589813232421,151.447372436523,13.024447441101,210247.942590541,0.088836669921875,-0.099960327148438,-1.00120544433593,210247.903924541,-0.011948272585869,0.000304399320157,-0.012192750349641,210246.080106,0,0,101.2376
1591402893.19426,3.05909991264343,78,1591402876.20435,1.30128699869126,103.835955643589,17.39661,12.2071170806884,7013.64575555636,1591402893.18473,54.818115234375,-69.9039306640625,28.0902709960937,151.589584350585,151.447143554687,13.0242547988891,210247.982507541,0.0902099609375,-0.10107421875,-1.00048828125,210247.943840541,-0.013720072805882,0.000996022252366,-0.009600429795682,210246.080106,0,0,101.2376
1591402893.24832,3.11315989494324,79,1591402876.20435,1.30128699869126,103.835955643589,17.39661,12.2071170806884,7013.64575555636,1591402893.23456,54.3682861328125,-69.7073669433593,29.9976806640625,151.587966918945,151.445526123046,13.0240631103515,210248.022423541,0.085845947265625,-0.100204467773437,-0.99853515625,210247.983757541,-0.009610283188522,-0.0008058725507,-0.010168747976422,210246.080106,0,0,101.2376
1591402893.27418,3.13901996612549,80,1591402876.20435,1.30128699869126,103.835955643589,17.39661,12.2071170806884,7013.64575555636,1591402893.23456,54.3682861328125,-69.7073669433593,29.9976806640625,151.587966918945,151.445526123046,13.0240631103515,210248.062340541,0.083450317382813,-0.099685668945313,-0.993072509765625,210248.023673541,-0.01124919205904,-0.005695169791579,-0.007251521106809,210246.080106,0,0,101.2376
1591402893.31407,3.17891001701355,81,1591402876.20435,1.30128699869126,103.835955643589,17.39661,12.2071170806884,7013.64575555636,1591402893.28457,53.841796875,-69.2352294921875,31.2318420410156,151.58592224121,151.443481445312,13.0238742828369,210248.102256541,0.078842163085938,-0.101089477539062,-0.989761352539062,210248.063590541,-0.009405486285686,-0.0022833943367,-0.010342119261622,210246.080106,0,0,101.2376
1591402893.369,3.23384022712708,82,1591402876.20435,1.30128699869126,103.835955643589,17.39661,12.2071170806884,7013.64575555636,1591402893.33443,51.52783203125,-68.1679077148437,31.9089965820312,151.586288452148,151.44384765625,13.0236864089965,210248.142172541,0.081588745117188,-0.1007080078125,-0.98968505859375,210248.103506541,-0.011997540481389,0.00096859165933,-0.007426491007209,210246.080106,0,0,101.2376
1591402893.39394,3.25878024101257,83,1591402876.20435,1.30128699869126,103.835955643589,17.39661,12.2071170806884,7013.64575555636,1591402893.38434,49.4393310546875,-67.0088500976562,32.6555786132812,151.586883544921,151.444442749023,13.0235004425048,210248.182089541,0.078125,-0.102218627929687,-0.995330810546875,210248.143422541,-0.013114203698933,0.002430933527648,-0.009498696774244,210246.080106,0,0,101.2376
1591402893.43376,3.2985999584198,84,1591402876.20435,1.30128699869126,103.835955643589,17.39661,12.2071170806884,7013.64575555636,1591402893.38434,49.4393310546875,-67.0088500976562,32.6555786132812,151.586883544921,151.444442749023,13.0235004425048,210248.222005541,0.08245849609375,-0.099868774414063,-0.999832153320312,210248.183339541,-0.010962103493512,0.011166634038091,-0.007433947641402,210246.080106,0,0,101.2376
1591402893.48934,3.35418009757996,85,1591402876.20435,1.30128699869126,103.835955643589,17.39661,12.2071170806884,7013.64575555636,1591402893.48441,45.9658203125,-63.1864318847656,32.5633239746093,151.588729858398,151.4462890625,13.0231342315673,210248.261921541,0.079208374023438,-0.099685668945313,-0.995758056640625,210248.223255541,-0.006668555550277,0.010639062151313,-0.011031878180802,210246.080106,0,0,101.2376
1591402893.51369,3.37853026390076,86,1591402876.20435,1.30128699869126,103.835955643589,17.39661,12.2071170806884,7013.64575555636,1591402893.48441,45.9658203125,-63.1864318847656,32.5633239746093,151.588729858398,151.4462890625,13.0231342315673,210248.301838541,0.08038330078125,-0.099884033203125,-0.985610961914062,210248.263171541,-0.006641391199082,0.009970609098673,-0.010122941806912,210246.080106,0,0,101.2376
1591402893.55352,3.41835999488831,87,1591402876.20435,1.30128699869126,103.835955643589,17.39661,12.2071170806884,7013.64575555636,1591402893.53394,44.4246826171875,-61.262939453125,32.6149291992187,151.589080810546,151.446640014648,13.0229549407959,210248.341754541,0.0750732421875,-0.105438232421875,-0.997390747070312,210248.303088541,-0.013167200610042,0.017451427876949,-0.010512029752135,210246.080106,0,0,101.2376
1591402893.60791,3.47274994850159,88,1591402876.20435,1.30128699869126,103.835955643589,17.39661,12.2071170806884,7013.64575555636,1591402893.58389,43.26806640625,-60.10791015625,32.3809814453125,151.591156005859,151.44871520996,13.0227756500244,210248.381670541,0.078460693359375,-0.101028442382812,-0.997024536132812,210248.382920541,-0.006567887961864,0.007592406123877,-0.010555705055594,210246.080106,0,0,101.2376
1591402893.63337,3.49820995330811,89,1591402876.20435,1.30128699869126,103.835955643589,17.39661,12.2071170806884,7013.64575555636,1591402893.58389,43.26806640625,-60.10791015625,32.3809814453125,151.591156005859,151.44871520996,13.0227756500244,210248.421587541,0.0814208984375,-0.1009521484375,-1.00430297851562,210248.382920541,-0.006567887961864,0.007592406123877,-0.010555705055594,210246.080106,0,0,101.2376
1591402893.67321,3.53805017471313,90,1591402876.20435,1.30128699869126,103.835955643589,17.39661,12.2071170806884,7013.64575555636,1591402893.63379,41.793212890625,-58.9454345703125,32.2414245605468,151.592193603515,151.449752807617,13.0225992202758,210248.461503541,0.080108642578125,-0.103363037109375,-1.00247192382812,210248.422837541,-0.004302603192627,0.001829325337894,-0.010946124792099,210246.080106,0,0,101.2376
1591402893.72575,3.59058976173401,91,1591402876.20435,1.30128699869126,103.835955643589,17.39661,12.2071170806884,7013.64575555636,1591402893.68364,41.65380859375,-57.7717895507812,31.8115234375,151.591796875,151.449356079101,13.0224246978759,210248.501419541,0.080490112304688,-0.10321044921875,-0.992935180664062,210248.462753541,-0.009925334714353,0.007866178639233,-0.010206565260887,210246.080106,0,0,101.2376
1591402893.7532,3.61803984642029,92,1591402876.20435,1.30128699869126,103.835955643589,17.39661,12.2071170806884,7013.64575555636,1591402893.73354,41.790283203125,-57.4453125,30.7845153808593,151.590774536132,151.448333740234,13.0222511291503,210248.54133675,0.078704833984375,-0.104751586914062,-0.99774169921875,210248.502669541,-0.006681604776531,0.011916047893465,-0.01028885692358,210246.080106,0,0,101.2376
1591402893.79303,3.657870054245,93,1591402876.20435,1.30128699869126,103.835955643589,17.39661,12.2071170806884,7013.64575555636,1591402893.78346,41.9254150390625,-57.4669494628906,29.6496887207031,151.59146118164,151.449020385742,13.0220794677734,210248.58125275,0.082260131835938,-0.103988647460937,-0.997283935546875,210248.54258675,-0.011027617380023,0.018648784607649,-0.011308314278722,210246.080106,0,0,101.2376
1591402893.8509,3.71573996543884,94,1591402876.20435,1.30128699869126,103.835955643589,17.39661,12.2071170806884,7013.64575555636,1591402893.83332,41.541259765625,-58.0935668945312,28.2301025390625,151.590606689453,151.448165893554,13.0219087600708,210248.62116875,0.0845947265625,-0.102569580078125,-0.997634887695312,210248.62241875,-0.007970574311912,0.006828877609223,-0.009882990270853,210246.080106,0,0,101.2376
1591402893.87301,3.73784995079041,95,1591402876.20435,1.30128699869126,103.835955643589,17.39661,12.2071170806884,7013.64575555636,1591402893.83332,41.541259765625,-58.0935668945312,28.2301025390625,151.590606689453,151.448165893554,13.0219087600708,210248.66108575,0.081192016601563,-0.102890014648437,-0.991500854492187,210248.62241875,-0.007970574311912,0.006828877609223,-0.009882990270853,210246.080106,0,0,101.2376
1591402893.91271,3.77754998207092,96,1591402876.20435,1.30128699869126,103.835955643589,17.39661,12.2071170806884,7013.64575555636,1591402893.88316,40.899169921875,-59.4606018066406,27.3011779785156,151.590118408203,151.447677612304,13.0217409133911,210248.70100175,0.082778930664063,-0.103439331054687,-0.9935302734375,210248.66233575,-0.008813997730613,0.012077169492841,-0.008093080483377,210247.112748,0,0.06341553,101.2368
1591402893.96846,3.83330011367798,97,1591402876.20435,1.30128699869126,103.835955643589,17.39661,12.2071170806884,7013.64575555636,1591402893.9332,39.1646728515625,-60.6994018554687,26.5309143066406,151.590774536132,151.448333740234,13.0215740203857,210248.74091875,0.084579467773438,-0.102386474609375,-0.996002197265625,210248.70225175,-0.010339722968638,0.01076343189925,-0.009926133789122,210247.112748,0,0.06341553,101.2368
1591402893.99249,3.85733008384705,98,1591402876.20435,1.30128699869126,103.835955643589,17.39661,12.2071170806884,7013.64575555636,1591402893.98308,37.7979736328125,-61.5174865722656,25.6314392089843,151.589157104492,151.446716308593,13.021409034729,210248.78083475,0.082046508789063,-0.105056762695312,-0.99603271484375,210248.74216875,-0.009068862535059,0.010128534398973,-0.010825483128428,210247.112748,0,0.06341553,101.2368
1591402894.03248,3.89732003211975,99,1591402876.20435,1.30128699869126,103.835955643589,17.39661,12.2071170806884,7013.64575555636,1591402893.98308,37.7979736328125,-61.5174865722656,25.6314392089843,151.589157104492,151.446716308593,13.021409034729,210248.82075075,0.082473754882813,-0.1090087890625,-1.00321960449218,210248.78208475,-0.012545086443424,0.012190353125334,-0.009659285657108,210247.112748,0,0.06341553,101.2368
1591402894.09046,3.95529985427856,100,1591402876.20435,1.30128699869126,103.835955643589,17.39661,12.2071170806884,7013.64575555636,1591402894.08314,33.7962646484375,-63.4606323242187,23.6220397949218,151.589431762695,151.446990966796,13.0210828781127,210248.86066775,0.082595825195313,-0.105422973632812,-1.00436401367187,210248.82200075,-0.010141850449145,0.016095345839858,-0.011781558394432,210247.112748,0,0.06341553,101.2368
1591402894.11247,3.97731018066406,101,1591402876.20435,1.30128699869126,103.835955643589,17.39661,12.2071170806884,7013.64575555636,1591402894.08314,33.7962646484375,-63.4606323242187,23.6220397949218,151.589431762695,151.446990966796,13.0210828781127,210248.90058375,0.087539672851563,-0.110870361328125,-0.988906860351562,210248.86191775,-0.009388973936439,0.012058793567121,-0.01056582480669,210247.112748,0,0.06341553,101.2368
1591402894.15387,4.01871013641357,102,1591402876.20435,1.30128699869126,103.835955643589,17.39661,12.2071170806884,7013.64575555636,1591402894.1327,31.3184814453125,-63.5753479003906,21.8011474609375,151.588058471679,151.445617675781,13.0209226608276,210248.94049975,0.085739135742188,-0.103134155273437,-1.0050048828125,210248.90183375,-0.008383897133172,0.007392136380076,-0.009473130106926,210247.112748,0,0.06341553,101.2368
1591402894.20672,4.07155990600586,103,1591402876.20435,1.30128699869126,103.835955643589,17.39661,12.2071170806884,7013.64575555636,1591402894.18247,28.777099609375,-63.19189453125,19.66064453125,151.593963623046,151.451522827148,13.0207633972168,210248.98041675,0.085128784179688,-0.1063232421875,-0.997238159179687,210248.94174975,-0.011782357469201,-0.002462358679622,-0.010441722348332,210247.112748,0,0.06341553,101.2368
1591402894.23224,4.09707999229431,104,1591402876.20435,1.30128699869126,103.835955643589,17.39661,12.2071170806884,7013.64575555636,1591402894.18247,28.777099609375,-63.19189453125,19.66064453125,151.593963623046,151.451522827148,13.0207633972168,210249.02033275,0.090118408203125,-0.10675048828125,-0.99932861328125,210248.98166675,-0.014334730803967,0.01548255328089,-0.009194031357765,210247.112748,0,0.06341553,101.2368
1591402894.27223,4.13706994056702,105,1591402876.20435,1.30128699869126,103.835955643589,17.39661,12.2071170806884,7013.64575555636,1591402894.23252,26.82373046875,-62.1330261230468,18.1474304199218,151.594421386718,151.45198059082,13.0206060409545,210249.06024875,0.088882446289063,-0.105743408203125,-1.00810241699218,210249.06149875,-0.010253702290356,0.001812813687138,-0.010608968324959,210247.112748,0,0.06341553,101.2368
1591402894.32404,4.18888020515442,106,1591402876.20435,1.30128699869126,103.835955643589,17.39661,12.2071170806884,7013.64575555636,1591402894.28239,24.333251953125,-60.6039733886718,16.3576965332031,151.594619750976,151.452178955078,13.0204524993896,210249.10016575,0.08868408203125,-0.1063232421875,-1.0042724609375,210249.06149875,-0.010253702290356,0.001812813687138,-0.010608968324959,210247.112748,0,0.06341553,101.2368
1591402894.35202,4.21686005592346,107,1591402876.20435,1.30128699869126,103.835955643589,17.39661,12.2071170806884,7013.64575555636,1591402894.33235,22.618896484375,-58.2836303710937,14.2070007324218,151.595474243164,151.453033447265,13.0203266143798,210249.14008175,0.0821533203125,-0.106979370117187,-0.997726440429687,210249.10141575,-0.005446697119623,-0.00506400084123,-0.010547449812293,210247.112748,0,0.06341553,101.2368
1591402894.39171,4.25655007362366,108,1591402876.20435,1.30128699869126,103.835955643589,17.39661,12.2071170806884,7013.64575555636,1591402894.38217,21.491455078125,-55.6049499511718,11.5319213867187,151.59619140625,151.453750610351,13.0202302932739,210249.17999775,0.08734130859375,-0.110137939453125,-1.01594543457031,210249.14133175,-0.00829388294369,0.001242364640348,-0.008581237867475,210247.112748,0,0.06341553,101.2368
1591402894.44985,4.31468987464905,109,1591402876.20435,1.30128699869126,103.835955643589,17.39661,12.2071170806884,7013.64575555636,1591402894.43211,21.2225341796875,-52.8403015136718,9.123291015625,151.59619140625,151.453750610351,13.0201787948608,210249.21991475,0.084320068359375,-0.106674194335937,-1.00785827636718,210249.18124775,-0.00840946380049,0.006225671619177,-0.011570103466511,210247.112748,0,0.06341553,101.2368
1591402894.47169,4.33652997016907,110,1591402876.20435,1.30128699869126,103.835955643589,17.39661,12.2071170806884,7013.64575555636,1591402894.43211,21.2225341796875,-52.8403015136718,9.123291015625,151.59619140625,151.453750610351,13.0201787948608,210249.25983075,0.088973999023438,-0.104721069335937,-0.9996337890625,210249.22116475,-0.008756207302213,9.43E-05,-0.008945291861892,210247.112748,0,0.06341553,101.2368
1591402894.51145,4.37629008293152,111,1591402876.20435,1.30128699869126,103.835955643589,17.39661,12.2071170806884,7013.64575555636,1591402894.48199,20.950927734375,-50.5280151367187,6.33132934570312,151.59861755371,151.456176757812,13.02011013031,210249.29974675,0.08099365234375,-0.10491943359375,-0.995651245117187,210249.26108075,-0.00910188537091,0.002643187297508,-0.010759969241917,210247.112748,0,0.06341553,101.2368
1591402894.5708,4.43564009666443,112,1591402876.20435,1.30128699869126,103.835955643589,17.39661,12.2071170806884,7013.64575555636,1591402894.53183,21.041259765625,-48.4979248046875,3.15408325195312,151.600524902343,151.458084106445,13.0199756622314,210249.33966275,0.082717895507813,-0.107101440429687,-0.98876953125,210249.30099675,-0.007309312000871,0.005069593433291,-0.011644405312836,210247.112748,0,0.06341553,101.2368
1591402894.59174,4.45657992362976,113,1591402876.20435,1.30128699869126,103.835955643589,17.39661,12.2071170806884,7013.64575555636,1591402894.58179,22.45703125,-46.5205078125,0.461761474609375,151.602462768554,151.460021972656,13.0198240280151,210249.37957975,0.085784912109375,-0.10638427734375,-0.995101928710937,210249.34091275,-0.008819590322673,0.004319913685322,-0.011362110264599,210247.112748,0,0.06341553,101.2368
1591402894.63129,4.49612998962402,114,1591402876.20435,1.30128699869126,103.835955643589,17.39661,12.2071170806884,7013.64575555636,1591402894.58179,22.45703125,-46.5205078125,0.461761474609375,151.602462768554,151.460021972656,13.0198240280151,210249.41949575,0.085357666015625,-0.109329223632812,-0.988174438476562,210249.38082975,-0.016854081302881,-0.000489755300805,-0.011994611471891,210247.112748,0,0.06341553,101.2368
1591402894.69099,4.55583000183106,115,1591402876.20435,1.30128699869126,103.835955643589,17.39661,12.2071170806884,7013.64575555636,1591402894.68185,24.79052734375,-44.0829162597656,-4.54254150390625,151.607025146484,151.464584350585,13.0195245742797,210249.45941175,0.08001708984375,-0.102783203125,-0.989028930664062,210249.42074575,-0.012547750025988,-0.004046673420817,-0.01104892231524,210247.112748,0,0.06341553,101.2368
1591402894.71106,4.57589983940125,116,1591402876.20435,1.30128699869126,103.835955643589,17.39661,12.2071170806884,7013.64575555636,1591402894.68185,24.79052734375,-44.0829162597656,-4.54254150390625,151.607025146484,151.464584350585,13.0195245742797,210249.49932875,0.08392333984375,-0.106582641601562,-0.99658203125,210249.46066175,-0.009983924217522,-0.011495800688863,-0.010211092419922,210247.112748,0,0.06341553,101.2368
1591402894.75096,4.61579990386963,117,1591402876.20435,1.30128699869126,103.835955643589,17.39661,12.2071170806884,7013.64575555636,1591402894.73139,27.03955078125,-43.2781982421875,-8.2958984375,151.607833862304,151.465393066406,13.0193767547607,210249.539243791,0.082839965820313,-0.105682373046875,-1.00163269042968,210249.50057875,-0.011923238635063,0.010269681923091,-0.012893428094685,210247.112748,0,0.06341553,101.2368
1591402894.8084,4.67323994636536,118,1591402876.20435,1.30128699869126,103.835955643589,17.39661,12.2071170806884,7013.64575555636,1591402894.78133,30.208251953125,-42.5532531738281,-11.5198669433593,151.610900878906,151.468460083007,13.0192308425903,210249.579159791,0.078964233398438,-0.109039306640625,-1.00079345703125,210249.540493791,-0.015824502333999,0.009458216838539,-0.011786085553467,210247.112748,0,0.06341553,101.2368
1591402894.83092,4.69576001167297,119,1591402876.20435,1.30128699869126,103.835955643589,17.39661,12.2071170806884,7013.64575555636,1591402894.78133,30.208251953125,-42.5532531738281,-11.5198669433593,151.610900878906,151.468460083007,13.0192308425903,210249.619076791,0.082672119140625,-0.10552978515625,-1.00849914550781,210249.580409791,0.000481499533635,-0.000299605628243,-0.012699816375971,210247.112748,0,0.06341553,101.2368
1591402894.87075,4.7355899810791,120,1591402876.20435,1.30128699869126,103.835955643589,17.39661,12.2071170806884,7013.64575555636,1591402894.83125,32.3831787109375,-42.6055297851562,-13.4466857910156,151.614532470703,151.472091674804,13.0191268920898,210249.658992791,0.078079223632813,-0.103958129882812,-0.999160766601562,210249.620326791,-0.010958109050989,0.012662531808019,-0.009295497089624,210247.112748,0,0.06341553,101.2368
1591402894.92847,4.79330992698669,121,1591402876.20435,1.30128699869126,103.835955643589,17.39661,12.2071170806884,7013.64575555636,1591402894.88117,34.433349609375,-41.7787780761718,-14.6261901855468,151.615203857421,151.472763061523,13.019079208374,210249.698908791,0.0682373046875,-0.106521606445312,-0.977493286132812,210249.660242791,-0.00596175249666,0.015019962564111,-0.008309062570333,210247.112748,0,0.06341553,101.2368
1591402894.95067,4.81551003456116,122,1591402876.20435,1.30128699869126,103.835955643589,17.39661,12.2071170806884,7013.64575555636,1591402894.93104,35.5335693359375,-41.3749084472656,-14.6891784667968,151.617645263671,151.475204467773,13.019021987915,210249.738825791,0.06011962890625,-0.106414794921875,-0.960250854492187,210249.700158791,-0.015733422711492,-0.004651210736483,-0.011370366439223,210248.145365,0,0.396348,101.2328
1591402894.99036,4.85520005226135,123,1591402876.20435,1.30128699869126,103.835955643589,17.39661,12.2071170806884,7013.64575555636,1591402894.98101,36.2694091796875,-40.3983154296875,-13.9648742675781,151.618881225585,151.476440429687,13.018889427185,210249.778741791,0.071609497070313,-0.111740112304687,-0.983261108398437,210249.740075791,-0.010444384999573,0.004662395920604,-0.010280068032444,210248.145365,0,0.396348,101.2328
1591402895.04861,4.91345000267029,124,1591402876.20435,1.30128699869126,103.835955643589,17.39661,12.2071170806884,7013.64575555636,1591402895.03082,38.093994140625,-39.6802368164062,-13.3459167480468,151.619934082031,151.477493286132,13.0187473297119,210249.818657791,0.077774047851563,-0.1026611328125,-0.989913940429687,210249.779991791,-0.003074885811657,0.011994078755379,-0.008461927995086,210248.145365,0,0.396348,101.2328
1591402895.07043,4.93527007102966,125,1591402876.20435,1.30128699869126,103.835955643589,17.39661,12.2071170806884,7013.64575555636,1591402895.03082,38.093994140625,-39.6802368164062,-13.3459167480468,151.619934082031,151.477493286132,13.0187473297119,210249.858574791,0.092849731445313,-0.107391357421875,-0.997940063476562,210249.819907791,-0.011009774170816,0.028313662856817,-0.009763681329787,210248.145365,0,0.396348,101.2328
1591402895.11118,4.97602009773254,126,1591402876.20435,1.30128699869126,103.835955643589,17.39661,12.2071170806884,7013.64575555636,1591402895.08067,38.7703857421875,-38.83740234375,-13.2314758300781,151.619018554687,151.476577758789,13.0186052322387,210249.898490791,0.081146240234375,-0.100677490234375,-0.999984741210937,210249.859824791,-0.009564210660756,0.019027220085263,-0.009554089978337,210248.145365,0,0.396348,101.2328
1591402895.16756,5.03240013122559,127,1591402876.20435,1.30128699869126,103.835955643589,17.39661,12.2071170806884,7013.64575555636,1591402895.13072,39.7098388671875,-38.10693359375,-13.6828918457031,151.621826171875,151.479385375976,13.0184640884399,210249.938406791,0.075515747070313,-0.103500366210937,-0.9981689453125,210249.899740791,-0.012566657736897,0.005322593729943,-0.011617774143815,210248.145365,0,0.396348,101.2328
1591402895.19044,5.05527997016907,128,1591402876.20435,1.30128699869126,103.835955643589,17.39661,12.2071170806884,7013.64575555636,1591402895.18056,39.641357421875,-37.4262390136718,-14.88037109375,151.625305175781,151.482864379882,13.018325805664,210249.978322791,0.08099365234375,-0.099746704101563,-1.0216064453125,210249.939656791,-0.009602826088667,0.004479170776904,-0.01116104144603,210248.145365,0,0.396348,101.2328
1591402895.23004,5.09487986564636,129,1591402876.20435,1.30128699869126,103.835955643589,17.39661,12.2071170806884,7013.64575555636,1591402895.18056,39.641357421875,-37.4262390136718,-14.88037109375,151.625305175781,151.482864379882,13.018325805664,210250.018239791,0.083786010742188,-0.10198974609375,-1.01020812988281,210249.979572791,-0.009868077002466,0.02265577763319,-0.010498180985451,210248.145365,0,0.396348,101.2328
1591402895.28897,5.15381002426147,130,1591402876.20435,1.30128699869126,103.835955643589,17.39661,12.2071170806884,7013.64575555636,1591402895.28054,35.55810546875,-37.0622253417968,-15.5372314453125,151.631042480468,151.48860168457,13.0180892944335,210250.058155791,0.086380004882813,-0.102935791015625,-1.01600646972656,210250.019489791,-0.014782141894102,-0.004934571217746,-0.011422297917306,210248.145365,0,0.396348,101.2328
1591402895.3099,5.17474007606506,131,1591402876.20435,1.30128699869126,103.835955643589,17.39661,12.2071170806884,7013.64575555636,1591402895.28054,35.55810546875,-37.0622253417968,-15.5372314453125,151.631042480468,151.48860168457,13.0180892944335,210250.098071791,0.08575439453125,-0.104354858398437,-1.00517272949218,210250.059405791,-0.017187243327498,-0.011911254376173,-0.010930944234133,210248.145365,0,0.396348,101.2328
1591402895.34975,5.21458983421326,132,1591402876.20435,1.30128699869126,103.835955643589,17.39661,12.2071170806884,7013.64575555636,1591402895.33046,33.1947021484375,-36.08935546875,-14.7433471679687,151.635314941406,151.492874145507,13.0180120468139,210250.137988791,0.078643798828125,-0.0958251953125,-0.992477416992187,210250.099321791,-0.010455037467182,-0.016698285937309,-0.011179151013494,210248.145365,0,0.396348,101.2328
1591402895.4087,5.27354001998901,133,1591402876.20435,1.30128699869126,103.835955643589,17.39661,12.2071170806884,7013.64575555636,1591402895.38009,30.535400390625,-35.7630310058593,-13.1956481933593,151.638076782226,151.495635986328,13.0178852081298,210250.177904791,0.086990356445313,-0.100906372070312,-0.99908447265625,210250.139238791,-0.013275591656566,-0.009917878545821,-0.011504855938256,210248.145365,0,0.396348,101.2328
1591402895.42961,5.29445004463196,134,1591402876.20435,1.30128699869126,103.835955643589,17.39661,12.2071170806884,7013.64575555636,1591402895.38009,30.535400390625,-35.7630310058593,-13.1956481933593,151.638076782226,151.495635986328,13.0178852081298,210250.217820791,0.076812744140625,-0.102508544921875,-0.996871948242187,210250.179154791,-0.013452159240842,-0.004230164922774,-0.009122658520937,210248.145365,0,0.396348,101.2328
1591402895.46943,5.33427023887634,135,1591402876.20435,1.30128699869126,103.835955643589,17.39661,12.2071170806884,7013.64575555636,1591402895.43003,29.71142578125,-34.804931640625,-11.6885375976562,151.640991210937,151.498550415039,13.0177516937255,210250.257737791,0.087890625,-0.105224609375,-0.973556518554687,210250.219070791,-0.016172844916582,0.02288986928761,-0.010624947026372,210248.145365,0,0.396348,101.2328
1591402895.52868,5.39352011680603,136,1591402876.20435,1.30128699869126,103.835955643589,17.39661,12.2071170806884,7013.64575555636,1591402895.47997,29.9937744140625,-34.78369140625,-10.896728515625,151.6455078125,151.503067016601,13.0176181793212,210250.297653791,0.072677612304688,-0.103591918945312,-1.00791931152343,210250.258987791,-0.009263006970286,0.010389257222414,-0.011926700361073,210248.145365,0,0.396348,101.2328
1591402895.54943,5.4142701625824,137,1591402876.20435,1.30128699869126,103.835955643589,17.39661,12.2071170806884,7013.64575555636,1591402895.52973,31.7579345703125,-35.5248107910156,-10.1576843261718,151.650512695312,151.508071899414,13.0174865722656,210250.337569791,0.082672119140625,-0.108642578125,-0.9710693359375,210250.298903791,-0.012601279653609,0.012615393847227,-0.011400193907321,210248.145365,0,0.396348,101.2328
1591402895.59043,5.45527005195618,138,1591402876.20435,1.30128699869126,103.835955643589,17.39661,12.2071170806884,7013.64575555636,1591402895.57959,33.602294921875,-37.6029052734375,-9.88262939453125,151.658370971679,151.515930175781,13.0173568725585,210250.377485791,0.074310302734375,-0.102752685546875,-0.993392944335937,210250.338819791,-0.009329851716757,0.021593175828457,-0.015312111005187,210248.145365,0,0.396348,101.2328
1591402895.62927,5.4941098690033,139,1591402876.20435,1.30128699869126,103.835955643589,17.39661,12.2071170806884,7013.64575555636,1591402895.57959,33.602294921875,-37.6029052734375,-9.88262939453125,151.658370971679,151.515930175781,13.0173568725585,210250.417402791,0.089447021484375,-0.106918334960937,-1.00018310546875,210250.378735791,-0.008108526468277,0.008381500840187,-0.009419334121048,210248.145365,0,0.396348,101.2328
1591402895.66922,5.53406023979187,140,1591402876.20435,1.30128699869126,103.835955643589,17.39661,12.2071170806884,7013.64575555636,1591402895.62958,34.4237060546875,-40.6092224121093,-8.90322875976562,151.663879394531,151.521438598632,13.0172281265258,210250.457318791,0.0911865234375,-0.1070556640625,-1.01361083984375,210250.418652791,-0.00707521988079,0.029096100479364,-0.011544536799192,210248.145365,0,0.396348,101.2328
1591402895.70892,5.57376003265381,141,1591402876.20435,1.30128699869126,103.835955643589,17.39661,12.2071170806884,7013.64575555636,1591402895.67933,33.8765869140625,-43.6591186523437,-7.99749755859375,151.669372558593,151.526931762695,13.0171003341674,210250.497234791,0.083389282226563,-0.1025390625,-1.00505065917968,210250.458568791,-0.009727994911373,0.000401338358643,-0.01056875474751,210248.145365,0,0.396348,101.2328
1591402895.74938,5.61421990394592,142,1591402876.20435,1.30128699869126,103.835955643589,17.39661,12.2071170806884,7013.64575555636,1591402895.72931,31.996826171875,-46.0253601074218,-7.79855346679687,151.673965454101,151.531524658203,13.0169801712036,210250.537152125,0.09832763671875,-0.0986328125,-1.01953125,210250.498484791,-0.008689627982676,0.020317789167166,-0.01302845031023,210248.145365,0,0.396348,101.2328
1591402895.78932,5.6541600227356,143,1591402876.20435,1.30128699869126,103.835955643589,17.39661,12.2071170806884,7013.64575555636,1591402895.77944,29.384033203125,-47.3185119628906,-7.60220336914062,151.681121826171,151.538681030273,13.0168561935424,210250.577068125,0.094207763671875,-0.101470947265625,-1.03190612792968,210250.538402125,0.001117196050473,-0.009132511913776,-0.012780243530869,210248.145365,0,0.396348,101.2328
1591402895.83061,5.69545006752014,144,1591402876.20435,1.30128699869126,103.835955643589,17.39661,12.2071170806884,7013.64575555636,1591402895.82913,25.2950439453125,-47.6044921875,-7.52542114257812,151.688064575195,151.545623779296,13.0167398452758,210250.616984125,0.08721923828125,-0.10150146484375,-1.00320434570312,210250.578318125,-0.025302426889539,0.0239567309618,-0.011954663321376,210248.145365,0,0.396348,101.2328
1591402895.86938,5.73422002792358,145,1591402876.20435,1.30128699869126,103.835955643589,17.39661,12.2071170806884,7013.64575555636,1591402895.82913,25.2950439453125,-47.6044921875,-7.52542114257812,151.688064575195,151.545623779296,13.0167398452758,210250.656900125,0.091995239257813,-0.101577758789062,-1.00563049316406,210250.618234125,-0.005937783978879,0.009581254795194,-0.014114753343165,210248.145365,0,0.396348,101.2328
1591402895.90857,5.7734100818634,146,1591402876.20435,1.30128699869126,103.835955643589,17.39661,12.2071170806884,7013.64575555636,1591402895.87931,21.637451171875,-46.7073059082031,-7.71670532226562,151.693298339843,151.550857543945,13.0166158676147,210250.696817125,0.068496704101563,-0.101898193359375,-0.985183715820312,210250.658150125,-0.007780158892274,-0.01018579211086,-0.013829529285431,210248.145365,0,0.396348,101.2328
1591402895.94846,5.81329989433289,147,1591402876.20435,1.30128699869126,103.835955643589,17.39661,12.2071170806884,7013.64575555636,1591402895.92923,18.591552734375,-45.7205200195312,-7.46072387695312,151.703567504882,151.561126708984,13.0164937973022,210250.736733125,0.081344604492188,-0.104141235351562,-0.99908447265625,210250.698067125,-0.022395053878427,0.001474326010793,-0.01375123206526,210248.145365,0,0.396348,101.2328
1591402895.98864,5.85348010063171,148,1591402876.20435,1.30128699869126,103.835955643589,17.39661,12.2071170806884,7013.64575555636,1591402895.97888,15.105712890625,-44.8551940917968,-5.86190795898437,151.712997436523,151.570556640625,13.0163736343383,210250.776649125,0.086471557617188,-0.098373413085938,-1.00434875488281,210250.737983125,-0.01203269418329,0.000286289810902,-0.012975187040865,210249.178015,0,0.8693233,101.2271
1591402896.02847,5.89331007003784,149,1591402876.20435,1.30128699869126,103.835955643589,17.39661,12.2071170806884,7013.64575555636,1591402895.97888,15.105712890625,-44.8551940917968,-5.86190795898437,151.712997436523,151.570556640625,13.0163736343383,210250.816566125,0.076171875,-0.102996826171875,-0.9910888671875,210250.777899125,-0.013783989474177,-0.002632002113387,-0.012612997554243,210249.178015,0,0.8693233,101.2271
1591402896.0685,5.93334007263184,150,1591402876.20435,1.30128699869126,103.835955643589,17.39661,12.2071170806884,7013.64575555636,1591402896.02892,11.858642578125,-44.6511535644531,-4.1104736328125,151.722930908203,151.580490112304,13.0162534713745,210250.856482125,0.0726318359375,-0.105117797851562,-0.969436645507812,210250.817816125,-0.008791893720627,-0.010835603810847,-0.01322312746197,210249.178015,0,0.8693233,101.2271
1591402896.10938,5.97422003746033,151,1591402876.20435,1.30128699869126,103.835955643589,17.39661,12.2071170806884,7013.64575555636,1591402896.07865,9.189208984375,-43.4191589355468,-2.88336181640625,152.126922607421,151.984481811523,13.0160427093505,210250.896398125,0.05694580078125,-0.100326538085937,-0.999420166015625,210250.857732125,-0.015912653878331,0.010896589607,-0.013722736388445,210249.178015,0,0.8693233,101.2271
1591402896.14819,6.01302981376648,152,1591402876.20435,1.30128699869126,103.835955643589,17.39661,12.2071170806884,7013.64575555636,1591402896.12858,7.281005859375,-42.3659057617187,-1.77810668945312,153.960067749023,153.817626953125,13.0154628753662,210250.936314125,0.075668334960938,-0.098663330078125,-0.987594604492187,210250.897648125,5.83E-05,0.003873301437125,-0.01263137254864,210249.178015,0,0.8693233,101.2271
1591402896.18967,6.05451011657715,153,1591402876.20435,1.30128699869126,103.835955643589,17.39661,12.2071170806884,7013.64575555636,1591402896.17838,5.8802490234375,-40.9294738769531,-0.7542724609375,155.607971191406,155.465530395507,13.0148878097534,210250.976231125,0.066497802734375,-0.098739624023438,-0.984527587890625,210250.937564125,-0.016654876992106,0.007635016459972,-0.014451643452048,210249.178015,0,0.8693233,101.2271
1591402896.22933,6.0941698551178,154,1591402876.20435,1.30128699869126,103.835955643589,17.39661,12.2071170806884,7013.64575555636,1591402896.22828,4.2789306640625,-39.40625,-0.1661376953125,157.081741333007,156.939300537109,13.0143194198608,210251.016147125,0.079635620117188,-0.103927612304687,-0.992172241210937,210250.977481125,-0.007270696107298,0.020205402746797,-0.011431352235377,210249.178015,0,0.8693233,101.2271
1591402896.26796,6.13280010223389,155,1591402876.20435,1.30128699869126,103.835955643589,17.39661,12.2071170806884,7013.64575555636,1591402896.22828,4.2789306640625,-39.40625,-0.1661376953125,157.081741333007,156.939300537109,13.0143194198608,210251.056063125,0.064010620117188,-0.096405029296875,-1.03062438964843,210251.017397125,-0.014443653635681,0.041218008846045,-0.016471650451422,210249.178015,0,0.8693233,101.2271
1591402896.30767,6.17250990867615,156,1591402876.20435,1.30128699869126,103.835955643589,17.39661,12.2071170806884,7013.64575555636,1591402896.27815,3.574462890625,-37.2777709960937,0.523284912109375,158.38735961914,158.244918823242,13.0137548446655,210251.095980125,0.104537963867187,-0.098373413085938,-0.987884521484375,210251.057313125,-0.001270327833481,0.008998022414744,-0.01441409252584,210249.178015,0,0.8693233,101.2271
1591402896.34925,6.21408987045288,157,1591402876.20435,1.30128699869126,103.835955643589,17.39661,12.2071170806884,7013.64575555636,1591402896.3282,3.24072265625,-34.6929626464843,1.54156494140625,159.54541015625,159.402969360351,13.0131950378418,210251.135896125,0.072463989257813,-0.097579956054688,-1.02809143066406,210251.097230125,-0.016183763742447,0.021444039419293,-0.015461780130863,210249.178015,0,0.8693233,101.2271
1591402896.38765,6.25248980522156,158,1591402876.20435,1.30128699869126,103.835955643589,17.39661,12.2071170806884,7013.64575555636,1591402896.37811,2.3548583984375,-33.0176696777343,2.71255493164062,160.614120483398,160.4716796875,13.0126390457153,210251.175812125,0.10003662109375,-0.094482421875,-1.00393676757812,210251.137146125,-0.012688098475337,0.001586977625266,-0.013285445049405,210249.178015,0,0.8693233,101.2271
1591402896.42944,6.29428005218506,159,1591402876.20435,1.30128699869126,103.835955643589,17.39661,12.2071170806884,7013.64575555636,1591402896.42795,2.0474853515625,-30.8940124511718,3.864990234375,161.60888671875,161.466445922851,13.0120868682861,210251.215728125,0.0732421875,-0.100555419921875,-1.03256225585937,210251.177062125,-0.009308280423284,-0.001901230658405,-0.018114289268851,210249.178015,0,0.8693233,101.2271
1591402896.46916,6.33400011062622,160,1591402876.20435,1.30128699869126,103.835955643589,17.39661,12.2071170806884,7013.64575555636,1591402896.42795,2.0474853515625,-30.8940124511718,3.864990234375,161.60888671875,161.466445922851,13.0120868682861,210251.255645125,0.103500366210937,-0.093307495117188,-1.01467895507812,210251.216978125,-0.010191917419434,0.010757839307189,-0.015311844646931,210249.178015,0,0.8693233,101.2271
1591402896.50766,6.37250018119812,161,1591402876.20435,1.30128699869126,103.835955643589,17.39661,12.2071170806884,7013.64575555636,1591402896.47807,2.442138671875,-28.6200866699218,4.62255859375,161.997695922851,161.855255126953,13.0118045806884,210251.295561125,0.0921630859375,-0.09747314453125,-1.02345275878906,210251.256895125,-0.011669705621898,0.010739996097982,-0.014506771229208,210249.178015,0,0.8693233,101.2271
1591402896.55075,6.4155900478363,162,1591402876.20435,1.30128699869126,103.835955643589,17.39661,12.2071170806884,7013.64575555636,1591402896.52796,3.3282470703125,-26.9049682617187,5.52511596679687,162.010803222656,161.868362426757,13.0116996765136,210251.335477125,0.077667236328125,-0.09197998046875,-1.00140380859375,210251.296811125,-0.013995444402099,-0.019898872822523,-0.012967197224498,210249.178015,0,0.8693233,101.2271
1591402896.58715,6.4519898891449,163,1591402876.20435,1.30128699869126,103.835955643589,17.39661,12.2071170806884,7013.64575555636,1591402896.57791,4.7066650390625,-25.2616271972656,6.07943725585937,162.02066040039,161.878219604492,13.0115947723388,210251.375393125,0.065963745117188,-0.098495483398438,-0.970443725585937,210251.336727125,-0.023803332820535,0.002833070699126,-0.01539440266788,210249.178015,0,0.8693233,101.2271
1591402896.62728,6.49212002754211,164,1591402876.20435,1.30128699869126,103.835955643589,17.39661,12.2071170806884,7013.64575555636,1591402896.57791,4.7066650390625,-25.2616271972656,6.07943725585937,162.02066040039,161.878219604492,13.0115947723388,210251.415310125,0.066421508789063,-0.095169067382813,-1.00144958496093,210251.376643125,-0.012897688895464,0.019671173766255,-0.015257782302797,210249.178015,0,0.8693233,101.2271
1591402896.66839,6.53323006629944,165,1591402876.20435,1.30128699869126,103.835955643589,17.39661,12.2071170806884,7013.64575555636,1591402896.62775,6.30322265625,-24.1434326171875,6.6541748046875,162.035598754882,161.893157958984,13.0114917755127,210251.455226125,0.068069458007813,-0.089797973632813,-0.974273681640625,210251.416560125,-0.015195997431874,0.011957060545683,-0.016966732218862,210249.178015,0,0.8693233,101.2271
1591402896.70694,6.57177996635437,166,1591402876.20435,1.30128699869126,103.835955643589,17.39661,12.2071170806884,7013.64575555636,1591402896.67728,8.48876953125,-23.2406311035156,6.98272705078125,162.050689697265,161.908248901367,13.0113897323608,210251.495142125,0.074203491210938,-0.093338012695313,-0.96343994140625,210251.456476125,-0.016594156622887,0.012046010233462,-0.016024239361286,210249.178015,0,0.8693233,101.2271
1591402896.74692,6.61176013946533,167,1591402876.20435,1.30128699869126,103.835955643589,17.39661,12.2071170806884,7013.64575555636,1591402896.72736,10.367431640625,-22.9208984375,6.94195556640625,162.066482543945,161.924041748046,13.0112876892089,210251.535058791,0.051956176757813,-0.097991943359375,-0.965377807617187,210251.496392125,-0.015023424290121,0.004626975860447,-0.015888951718807,210249.178015,0,0.8693233,101.2271
1591402896.78789,6.65273022651672,168,1591402876.20435,1.30128699869126,103.835955643589,17.39661,12.2071170806884,7013.64575555636,1591402896.77714,13.291748046875,-22.1808776855468,6.62570190429687,162.083389282226,161.940948486328,13.0111865997314,210251.574974791,0.08489990234375,-0.094985961914063,-0.993759155273437,210251.536308791,-0.006046174559742,0.040441431105137,-0.015705991536379,210249.178015,0,0.8693233,101.2271
1591402896.82677,6.69161009788513,169,1591402876.20435,1.30128699869126,103.835955643589,17.39661,12.2071170806884,7013.64575555636,1591402896.77714,13.291748046875,-22.1808776855468,6.62570190429687,162.083389282226,161.940948486328,13.0111865997314,210251.614890791,0.084823608398438,-0.0933837890625,-1.001953125,210251.576224791,-0.006305566523224,0.036679185926914,-0.016871124505997,210249.178015,0,0.8693233,101.2271
1591402896.8666,6.73144006729126,170,1591402876.20435,1.30128699869126,103.835955643589,17.39661,12.2071170806884,7013.64575555636,1591402896.82707,15.8974609375,-22.2355041503906,6.313232421875,162.100143432617,161.957702636718,13.0110874176025,210251.654806791,0.0863037109375,-0.088302612304688,-1.00198364257812,210251.616140791,-0.014736868441105,0.026444923132658,-0.016292687505484,210249.178015,0,0.8693233,101.2271
1591402896.91078,6.7756199836731,171,1591402876.20435,1.30128699869126,103.835955643589,17.39661,12.2071170806884,7013.64575555636,1591402896.87691,18.1954345703125,-22.7609252929687,5.54705810546875,162.115112304687,161.972671508789,13.0109882354736,210251.694723791,0.088638305664063,-0.09075927734375,-1.015380859375,210251.656056791,-0.009728261269629,0.030819164589047,-0.013671870343387,210249.178015,0,0.8693233,101.2271
1591402896.94641,6.81124997138977,172,1591402876.20435,1.30128699869126,103.835955643589,17.39661,12.2071170806884,7013.64575555636,1591402896.92685,20.4991455078125,-23.2856750488281,4.5703125,164.991409301757,164.848968505859,13.0104494094848,210251.734639791,0.09906005859375,-0.090866088867188,-1.02061462402343,210251.695973791,-0.00827550701797,0.026159698143601,-0.018032263964415,210249.178015,0,0.8693233,101.2271
1591402896.98636,6.85119986534119,173,1591402876.20435,1.30128699869126,103.835955643589,17.39661,12.2071170806884,7013.64575555636,1591402896.97674,22.4503173828125,-24.4758911132812,3.5146484375,167.801956176757,167.659515380859,13.0099258422851,210251.774555791,0.103668212890625,-0.08953857421875,-1.03767395019531,210251.735889791,-0.009186041541398,0.031120635569096,-0.017693510279059,210249.178015,0,0.8693233,101.2271
1591402897.02936,6.89420008659363,174,1591402876.20435,1.30128699869126,103.835955643589,17.39661,12.2071170806884,7013.64575555636,1591402897.02668,24.2801513671875,-25.4653625488281,1.75131225585937,170.534057617187,170.391616821289,13.0094633102417,210251.814471791,0.098831176757813,-0.08636474609375,-1.01268005371093,210251.775805791,-0.008216118440032,0.005576925817877,-0.019970512017608,210249.34122,0,1.212824,101.223
1591402897.06622,6.93106007575989,175,1591402876.20435,1.30128699869126,103.835955643589,17.39661,12.2071170806884,7013.64575555636,1591402897.02668,24.2801513671875,-25.4653625488281,1.75131225585937,170.534057617187,170.391616821289,13.0094633102417,210251.854388791,0.088958740234375,-0.0860595703125,-1.00627136230468,210251.815721791,-0.012312326580286,-0.010418020188808,-0.017496168613434,210249.34122,0,1.212824,101.223
1591402897.10613,6.97097015380859,176,1591402876.20435,1.30128699869126,103.835955643589,17.39661,12.2071170806884,7013.64575555636,1591402897.0764,26.150634765625,-26.2154235839843,-0.320953369140625,173.145568847656,173.003128051757,13.0089874267578,210251.894304791,0.0941162109375,-0.083053588867188,-1.00782775878906,210251.855638791,-0.010036921128631,-0.004826979245991,-0.017040235921741,210249.34122,0,1.212824,101.223
1591402897.14874,7.01358008384705,177,1591402876.20435,1.30128699869126,103.835955643589,17.39661,12.2071170806884,7013.64575555636,1591402897.12633,27.23486328125,-27.0707397460937,-2.1256103515625,175.628036499023,175.485595703125,13.0084686279296,210251.934220791,0.083236694335938,-0.083984375,-1.00157165527343,210251.895554791,-0.018009094521403,-0.008407865650952,-0.019475962966681,210249.34122,0,1.212824,101.223
1591402897.18599,7.05082988739014,178,1591402876.20435,1.30128699869126,103.835955643589,17.39661,12.2071170806884,7013.64575555636,1591402897.1766,28.5,-27.8468627929687,-4.15625,178.014678955078,177.872238159179,13.0079441070556,210251.974136791,0.088851928710938,-0.083297729492188,-0.977813720703125,210251.935470791,-0.020501812919974,-0.014788267202675,-0.019138274714351,210249.34122,0,1.212824,101.223
1591402897.2259,7.09073996543884,179,1591402876.20435,1.30128699869126,103.835955643589,17.39661,12.2071170806884,7013.64575555636,1591402897.1766,28.5,-27.8468627929687,-4.15625,178.014678955078,177.872238159179,13.0079441070556,210252.014053791,0.0799560546875,-0.083831787109375,-0.976425170898437,210251.975386791,-0.018048241734505,-0.026607908308506,-0.020040286704898,210249.34122,0,1.212824,101.223
1591402897.26808,7.13292002677918,180,1591402876.20435,1.30128699869126,103.835955643589,17.39661,12.2071170806884,7013.64575555636,1591402897.2266,28.8905029296875,-28.6920166015625,-6.25607299804687,180.273620605468,180.13117980957,13.0074224472045,210252.053969791,0.085906982421875,-0.08251953125,-0.987060546875,210252.015303791,-0.012913933955133,-0.009733587503433,-0.018159030005336,210249.34122,0,1.212824,101.223
1591402897.30581,7.17065000534058,181,1591402876.20435,1.30128699869126,103.835955643589,17.39661,12.2071170806884,7013.64575555636,1591402897.27644,30.486328125,-29.1723022460937,-8.3182373046875,182.443038940429,182.300598144531,13.0069026947021,210252.093885791,0.086013793945313,-0.083908081054688,-0.996932983398437,210252.055219791,-0.015918778255582,-0.000257793988567,-0.019337479025126,210249.34122,0,1.212824,101.223
1591402897.34564,7.2104799747467,182,1591402876.20435,1.30128699869126,103.835955643589,17.39661,12.2071170806884,7013.64575555636,1591402897.32608,31.7760009765625,-30.3689575195312,-10.4569702148437,183.698379516601,183.555938720703,13.0065555572509,210252.133801791,0.082916259765625,-0.082244873046875,-0.984619140625,210252.095135791,-0.00847923848778,0.016304671764374,-0.019980365410447,210249.34122,0,1.212824,101.223
1591402897.38937,7.25420999526978,183,1591402876.20435,1.30128699869126,103.835955643589,17.39661,12.2071170806884,7013.64575555636,1591402897.37586,32.5048828125,-32.2164611816406,-12.3686218261718,183.721633911132,183.579193115234,13.0064649581909,210252.173718791,0.08404541015625,-0.0841064453125,-0.993942260742187,210252.174968791,-0.009032643400133,0.022758575156331,-0.020640829578042,210249.34122,0,1.212824,101.223
1591402897.42541,7.29025006294251,184,1591402876.20435,1.30128699869126,103.835955643589,17.39661,12.2071170806884,7013.64575555636,1591402897.37586,32.5048828125,-32.2164611816406,-12.3686218261718,183.721633911132,183.579193115234,13.0064649581909,210252.213634791,0.077117919921875,-0.081893920898438,-0.980499267578125,210252.174968791,-0.009032643400133,0.022758575156331,-0.020640829578042,210249.34122,0,1.212824,101.223
1591402897.46544,7.3302800655365,185,1591402876.20435,1.30128699869126,103.835955643589,17.39661,12.2071170806884,7013.64575555636,1591402897.42577,32.467041015625,-34.1415710449218,-13.9873657226562,183.746307373046,183.603866577148,13.0063762664794,210252.253550791,0.084396362304688,-0.083465576171875,-1.01065063476562,210252.214884791,-0.015279886312783,0.033479664474726,-0.019426427781582,210249.34122,0,1.212824,101.223
1591402897.50955,7.37439012527466,186,1591402876.20435,1.30128699869126,103.835955643589,17.39661,12.2071170806884,7013.64575555636,1591402897.47557,30.993408203125,-35.7709045410156,-14.9125366210937,183.770278930664,183.627838134765,13.006287574768,210252.293466791,0.08135986328125,-0.08099365234375,-0.997833251953125,210252.254800791,-0.001609081868082,0.012018579989672,-0.018719624727964,210249.34122,0,1.212824,101.223
1591402897.54529,7.4101300239563,187,1591402876.20435,1.30128699869126,103.835955643589,17.39661,12.2071170806884,7013.64575555636,1591402897.52556,28.2890625,-36.9490051269531,-14.9351806640625,183.79719543457,183.654754638671,13.0061988830566,210252.333383791,0.079238891601563,-0.081329345703125,-0.987884521484375,210252.294716791,-0.006869890261441,0.005730856209993,-0.021458953619003,210249.34122,0,1.212824,101.223
1591402897.58515,7.44999003410339,188,1591402876.20435,1.30128699869126,103.835955643589,17.39661,12.2071170806884,7013.64575555636,1591402897.57551,25.556396484375,-36.8729248046875,-14.4151000976562,183.822875976562,183.680435180664,13.0061130523681,210252.373299791,0.07861328125,-0.079635620117188,-1.01203918457031,210252.334633791,-0.007221161387861,0.008517055772245,-0.021163608878851,210249.34122,0,1.212824,101.223
1591402897.6251,7.48993992805481,189,1591402876.20435,1.30128699869126,103.835955643589,17.39661,12.2071170806884,7013.64575555636,1591402897.57551,25.556396484375,-36.8729248046875,-14.4151000976562,183.822875976562,183.680435180664,13.0061130523681,210252.413215791,0.084274291992188,-0.079132080078125,-1.01826477050781,210252.374549791,-0.013228187337518,-0.000445546844276,-0.019530557096004,210249.34122,0,1.212824,101.223
1591402897.665,7.52984023094177,190,1591402876.20435,1.30128699869126,103.835955643589,17.39661,12.2071170806884,7013.64575555636,1591402897.6253,23.4063720703125,-36.2846984863281,-13.9275817871093,183.850769042968,183.70832824707,13.0060262680053,210252.453131791,0.069839477539063,-0.077423095703125,-0.994400024414062,210252.414465791,-0.015071894042194,0.000704406120349,-0.022715166211128,210249.34122,0,1.212824,101.223
1591402897.70476,7.56959986686707,191,1591402876.20435,1.30128699869126,103.835955643589,17.39661,12.2071170806884,7013.64575555636,1591402897.67523,23.4345703125,-35.5793151855468,-13.4977722167968,183.87922668457,183.736785888671,13.0059413909912,210252.493048791,0.071502685546875,-0.080337524414063,-1.00286865234375,210252.454381791,-0.012153602205217,-0.000281229818938,-0.021136177703738,210249.34122,0,1.212824,101.223
1591402897.74527,7.61011004447937,192,1591402876.20435,1.30128699869126,103.835955643589,17.39661,12.2071170806884,7013.64575555636,1591402897.72523,25.9921875,-35.0667724609375,-13.92333984375,183.906585693359,183.76414489746,13.005856513977,210252.532964791,0.069259643554688,-0.077438354492188,-1.00155639648437,210252.494298791,-0.008304002694786,-0.012153868563473,-0.019900470972061,210249.34122,0,1.212824,101.223
1591402897.78475,7.64959001541138,193,1591402876.20435,1.30128699869126,103.835955643589,17.39661,12.2071170806884,7013.64575555636,1591402897.77505,28.536865234375,-35.2458801269531,-13.9530639648437,183.937683105468,183.79524230957,13.0057735443115,210252.572880875,0.071029663085938,-0.075881958007813,-0.994659423828125,210252.534214791,-0.017375795170665,0.001456749159843,-0.021486116573215,210249.34122,0,1.212824,101.223
1591402897.82457,7.68940997123718,194,1591402876.20435,1.30128699869126,103.835955643589,17.39661,12.2071170806884,7013.64575555636,1591402897.77505,28.536865234375,-35.2458801269531,-13.9530639648437,183.937683105468,183.79524230957,13.0057735443115,210252.612796875,0.065673828125,-0.071380615234375,-0.973175048828125,210252.574130875,-0.017241571098566,-0.000554736470804,-0.023484021425247,210249.34122,0,1.212824,101.223
1591402897.86874,7.73358011245728,195,1591402876.20435,1.30128699869126,103.835955643589,17.39661,12.2071170806884,7013.64575555636,1591402897.82518,31.077392578125,-36.0461730957031,-14.5748901367187,183.969406127929,183.826965332031,13.0056896209716,210252.652713875,0.071090698242188,-0.070938110351563,-0.971939086914062,210252.653963875,-0.023538615554571,0.007377222646028,-0.024135962128639,210249.34122,0,1.212824,101.223
1591402897.90458,7.76942014694214,196,1591402876.20435,1.30128699869126,103.835955643589,17.39661,12.2071170806884,7013.64575555636,1591402897.87508,31.359619140625,-37.8943786621093,-14.9515075683593,184.002960205078,183.860519409179,13.0056076049804,210252.692629875,0.06494140625,-0.076446533203125,-0.984451293945312,210252.653963875,-0.023538615554571,0.007377222646028,-0.024135962128639,210249.34122,0,1.212824,101.223
1591402897.94434,7.80918002128601,197,1591402876.20435,1.30128699869126,103.835955643589,17.39661,12.2071170806884,7013.64575555636,1591402897.92483,30.43505859375,-39.706298828125,-14.5911560058593,184.039642333984,183.897201538085,13.0055255889892,210252.732545875,0.0673828125,-0.076263427734375,-0.98382568359375,210252.693879875,-0.017374197021127,0.027395404875278,-0.024736505001783,210249.34122,0,1.212824,101.223
1591402897.98893,7.85376977920532,198,1591402876.20435,1.30128699869126,103.835955643589,17.39661,12.2071170806884,7013.64575555636,1591402897.97455,29.5145263671875,-41.6559753417968,-15.137451171875,184.075454711914,183.933013916015,13.0054445266723,210252.772461875,0.070053100585938,-0.071914672851563,-0.98046875,210252.733795875,-0.011418037116528,0.024103738367558,-0.022472817450762,210250.297191,0,1.297379,101.222
1591402898.02423,7.8890700340271,199,1591402876.20435,1.30128699869126,103.835955643589,17.39661,12.2071170806884,7013.64575555636,1591402897.97455,29.5145263671875,-41.6559753417968,-15.137451171875,184.075454711914,183.933013916015,13.0054445266723,210252.812377875,0.073471069335938,-0.074203491210938,-0.9893798828125,210252.773711875,-0.010043046437204,0.023058181628585,-0.025499233976007,210250.297191,0,1.297379,101.222
1591402898.06407,7.92891001701355,200,1591402876.20435,1.30128699869126,103.835955643589,17.39661,12.2071170806884,7013.64575555636,1591402898.02453,28.177978515625,-43.2063598632812,-15.4061889648437,184.111083984375,183.968643188476,13.0053644180297,210252.852294875,0.075103759765625,-0.07550048828125,-0.979904174804687,210252.813627875,-0.010855310596526,0.031641017645597,-0.026061162352562,210250.297191,0,1.297379,101.222
1591402898.10936,7.97420001029968,201,1591402876.20435,1.30128699869126,103.835955643589,17.39661,12.2071170806884,7013.64575555636,1591402898.07436,26.4862060546875,-44.9535827636718,-15.5922241210937,184.147216796875,184.004776000976,13.0052852630615,210252.892210875,0.081375122070313,-0.075531005859375,-0.990921020507812,210252.853544875,-0.009619071148336,0.025390578433871,-0.021325262263417,210250.297191,0,1.297379,101.222
1591402898.14391,8.00874996185303,202,1591402876.20435,1.30128699869126,103.835955643589,17.39661,12.2071170806884,7013.64575555636,1591402898.12429,24.960693359375,-45.7795715332031,-15.5675964355468,184.185470581054,184.043029785156,13.0052051544189,210252.932126875,0.08685302734375,-0.073959350585938,-1.00030517578125,210252.893460875,-0.00917458999902,0.029771476984024,-0.025996180251241,210250.297191,0,1.297379,101.222
1591402898.184,8.04884004592896,203,1591402876.20435,1.30128699869126,103.835955643589,17.39661,12.2071170806884,7013.64575555636,1591402898.17432,23.0281982421875,-46.2808227539062,-15.5162963867187,184.224624633789,184.08218383789,13.0051279067993,210252.972042875,0.0823974609375,-0.072494506835938,-1.00408935546875,210252.933376875,-0.00893490575254,0.024565797299147,-0.024913338944316,210250.297191,0,1.297379,101.222
1591402898.22744,8.09227991104126,204,1591402876.20435,1.30128699869126,103.835955643589,17.39661,12.2071170806884,7013.64575555636,1591402898.22415,21.0760498046875,-46.5279235839843,-15.2787475585937,184.264541625976,184.122100830078,13.0050497055053,210253.011959875,0.087661743164063,-0.071380615234375,-1.01322937011718,210252.973292875,-0.011462777853012,0.01940006390214,-0.028519792482257,210250.297191,0,1.297379,101.222
1591402898.2638,8.12863993644714,205,1591402876.20435,1.30128699869126,103.835955643589,17.39661,12.2071170806884,7013.64575555636,1591402898.22415,21.0760498046875,-46.5279235839843,-15.2787475585937,184.264541625976,184.122100830078,13.0050497055053,210253.051875875,0.082168579101563,-0.074188232421875,-0.995651245117187,210253.013209875,-0.012773052789271,0.013992514461279,-0.025718146935105,210250.297191,0,1.297379,101.222
1591402898.3036,8.16843986511231,206,1591402876.20435,1.30128699869126,103.835955643589,17.39661,12.2071170806884,7013.64575555636,1591402898.27399,19.0496826171875,-46.4332580566406,-15.3478393554687,184.303039550781,184.160598754882,13.00497341156,210253.091791875,0.077606201171875,-0.071151733398438,-1.00338745117187,210253.053125875,-0.008897621184587,0.01477814745158,-0.025025991722941,210250.297191,0,1.297379,101.222
1591402898.34761,8.21245002746582,207,1591402876.20435,1.30128699869126,103.835955643589,17.39661,12.2071170806884,7013.64575555636,1591402898.32395,17.2294921875,-46.8392028808593,-15.5210266113281,184.343887329101,184.201446533203,13.0048961639404,210253.131707875,0.081527709960938,-0.071304321289063,-0.99969482421875,210253.093041875,-0.017342237755656,0.014205567538738,-0.026163693517447,210250.297191,0,1.297379,101.222
1591402898.38379,8.24863004684448,208,1591402876.20435,1.30128699869126,103.835955643589,17.39661,12.2071170806884,7013.64575555636,1591402898.37381,13.527099609375,-47.6960754394531,-14.7525024414062,184.38328552246,184.240844726562,13.0048208236694,210253.171624875,0.07867431640625,-0.074066162109375,-1.00430297851562,210253.132957875,-0.014159228652716,0.003507383167744,-0.024795893579721,210250.297191,0,1.297379,101.222
1591402898.42336,8.28820013999939,209,1591402876.20435,1.30128699869126,103.835955643589,17.39661,12.2071170806884,7013.64575555636,1591402898.37381,13.527099609375,-47.6960754394531,-14.7525024414062,184.38328552246,184.240844726562,13.0048208236694,210253.211540875,0.076324462890625,-0.064651489257813,-0.999298095703125,210253.172874875,-0.016932910308242,0.02206109277904,-0.028304874897003,210250.297191,0,1.297379,101.222
1591402898.46941,8.33424997329712,210,1591402876.20435,1.30128699869126,103.835955643589,17.39661,12.2071170806884,7013.64575555636,1591402898.42385,8.1878662109375,-47.8495178222656,-14.3923950195312,184.422729492187,184.280288696289,13.0047464370727,210253.251456875,0.079696655273438,-0.063507080078125,-0.98944091796875,210253.212790875,-0.015229819342494,0.014398912899196,-0.024473385885358,210250.297191,0,1.297379,101.222
1591402898.50319,8.36803007125855,211,1591402876.20435,1.30128699869126,103.835955643589,17.39661,12.2071170806884,7013.64575555636,1591402898.47386,2.802978515625,-47.1477966308593,-13.3114318847656,184.465011596679,184.322570800781,13.004672050476,210253.291372875,0.081344604492188,-0.067276000976563,-0.99725341796875,210253.252706875,-0.010183394886553,0.031109983101487,-0.027484621852636,210250.297191,0,1.297379,101.222
1591402898.54308,8.40791988372803,212,1591402876.20435,1.30128699869126,103.835955643589,17.39661,12.2071170806884,7013.64575555636,1591402898.52349,-0.0465087890625,-45.2172241210937,-13.1775512695312,184.508056640625,184.365615844726,13.0045986175537,210253.331289875,0.07305908203125,-0.069061279296875,-0.966217041015625,210253.292622875,-0.011288607493043,0.023887755349278,-0.024602815508842,210250.297191,0,1.297379,101.222
1591402898.58751,8.45235013961792,213,1591402876.20435,1.30128699869126,103.835955643589,17.39661,12.2071170806884,7013.64575555636,1591402898.57333,-1.702392578125,-43.9621887207031,-13.1919860839843,184.55110168457,184.408660888671,13.0045251846313,210253.371205875,0.068588256835938,-0.067596435546875,-0.985061645507812,210253.332539875,-0.010522149503231,0.046444997191429,-0.026029735803604,210250.297191,0,1.297379,101.222
1591402898.62294,8.48778009414673,214,1591402876.20435,1.30128699869126,103.835955643589,17.39661,12.2071170806884,7013.64575555636,1591402898.57333,-1.702392578125,-43.9621887207031,-13.1919860839843,184.55110168457,184.408660888671,13.0045251846313,210253.411121875,0.086135864257813,-0.06329345703125,-0.993743896484375,210253.372455875,-0.00906806346029,0.049882870167494,-0.027032949030399,210250.297191,0,1.297379,101.222
1591402898.66289,8.52772998809814,215,1591402876.20435,1.30128699869126,103.835955643589,17.39661,12.2071170806884,7013.64575555636,1591402898.62327,-2.6239013671875,-42.1743469238281,-13.3537902832031,184.591735839843,184.449295043945,13.0043668746948,210253.451037875,0.085983276367188,-0.064102172851563,-0.988296508789062,210253.412371875,-0.011419634334743,0.032571259886026,-0.028708077967167,210250.297191,0,1.297379,101.222
1591402898.71044,8.57528018951416,216,1591402876.20435,1.30128699869126,103.835955643589,17.39661,12.2071170806884,7013.64575555636,1591402898.67321,-2.994384765625,-40.9710693359375,-13.2787170410156,184.612167358398,184.4697265625,13.0038681030273,210253.490954875,0.0921630859375,-0.068527221679688,-0.9993896484375,210253.452287875,-0.009337042458355,0.021406488493085,-0.028404476121068,210250.297191,0,1.297379,101.222
1591402898.74265,8.60749006271362,217,1591402876.20435,1.30128699869126,103.835955643589,17.39661,12.2071170806884,7013.64575555636,1591402898.7231,-2.9434814453125,-39.7620239257812,-13.3988342285156,184.634902954101,184.492462158203,13.0033731460571,210253.530870875,0.081924438476563,-0.072891235351563,-0.984176635742187,210253.492204875,-0.009486446157098,0.019572103396058,-0.030342726036906,210250.297191,0,1.297379,101.222
1591402898.78262,8.64745998382568,218,1591402876.20435,1.30128699869126,103.835955643589,17.39661,12.2071170806884,7013.64575555636,1591402898.77299,-2.768798828125,-39.1000366210937,-13.2546691894531,184.656936645507,184.514495849609,13.0028800964355,210253.570786875,0.085952758789063,-0.065414428710938,-1.00721740722656,210253.532120875,-0.008382831700146,0.023432355374098,-0.027951473370194,210250.297191,0,1.297379,101.222
1591402898.82828,8.69312000274658,219,1591402876.20435,1.30128699869126,103.835955643589,17.39661,12.2071170806884,7013.64575555636,1591402898.82291,-2.3817138671875,-38.6664123535156,-13.7276000976562,184.679779052734,184.537338256835,13.0023899078369,210253.610702875,0.086578369140625,-0.060958862304688,-0.994140625,210253.572036875,-0.007446997333318,0.03160772845149,-0.028744297102094,210250.297191,0,1.297379,101.222
1591402898.86241,8.72725009918213,220,1591402876.20435,1.30128699869126,103.835955643589,17.39661,12.2071170806884,7013.64575555636,1591402898.82291,-2.3817138671875,-38.6664123535156,-13.7276000976562,184.679779052734,184.537338256835,13.0023899078369,210253.650619875,0.082534790039063,-0.0672607421875,-1.01072692871093,210253.611952875,-0.011044128797948,0.010283263400197,-0.030186664313078,210250.297191,0,1.297379,101.222
1591402898.90246,8.76730012893677,221,1591402876.20435,1.30128699869126,103.835955643589,17.39661,12.2071170806884,7013.64575555636,1591402898.87262,-1.7073974609375,-38.4419555664062,-13.8283081054687,184.708831787109,184.56639099121,13.0019016265869,210253.690535875,0.072921752929688,-0.068038940429688,-0.993820190429687,210253.651869875,-0.007679224945605,0.010774617083371,-0.029982665553689,210250.297191,0,1.297379,101.222
1591402898.95254,8.81737995147705,222,1591402876.20435,1.30128699869126,103.835955643589,17.39661,12.2071170806884,7013.64575555636,1591402898.92262,-1.708984375,-38.1008605957031,-14.4618835449218,184.736663818359,184.59422302246,13.0014162063598,210253.730451875,0.076019287109375,-0.0604248046875,-1.019775390625,210253.691785875,-0.010243316181004,0.010871822014451,-0.028552815318108,210251.253249,0,1.313233,101.2218
1591402898.98245,8.8472900390625,223,1591402876.20435,1.30128699869126,103.835955643589,17.39661,12.2071170806884,7013.64575555636,1591402898.97255,-2.0386962890625,-37.2960510253906,-14.8915405273437,184.764816284179,184.622375488281,13.0009326934814,210253.770367875,0.080108642578125,-0.053024291992188,-1.00630187988281,210253.731701875,-0.014549115672708,0.011980229988694,-0.029360285028815,210251.253249,0,1.313233,101.2218
1591402899.02213,8.88697004318237,224,1591402876.20435,1.30128699869126,103.835955643589,17.39661,12.2071170806884,7013.64575555636,1591402898.97255,-2.0386962890625,-37.2960510253906,-14.8915405273437,184.764816284179,184.622375488281,13.0009326934814,210253.810284875,0.07098388671875,-0.052688598632813,-0.988265991210937,210253.771617875,-0.017088172957301,-0.001012001186609,-0.028573853895068,210251.253249,0,1.313233,101.2218
1591402899.07201,8.93685007095337,225,1591402876.20435,1.30128699869126,103.835955643589,17.39661,12.2071170806884,7013.64575555636,1591402899.02247,-1.73388671875,-37.2175903320312,-15.7012329101562,184.797119140625,184.654678344726,13.0004529953002,210253.850200875,0.075225830078125,-0.0609130859375,-1.0115966796875,210253.811534875,-0.017011741176248,0.011908058077097,-0.029567746445537,210251.253249,0,1.313233,101.2218
1591402899.10199,8.9668300151825,226,1591402876.20435,1.30128699869126,103.835955643589,17.39661,12.2071170806884,7013.64575555636,1591402899.07259,-1.087158203125,-37.0180053710937,-16.5532836914062,184.831909179687,184.689468383789,12.9999904632568,210253.890116875,0.08892822265625,-0.062362670898438,-1.0010986328125,210253.851450875,-0.016023440286517,0.016774186864495,-0.032938774675131,210251.253249,0,1.313233,101.2218
1591402899.1418,9.00664019584656,227,1591402876.20435,1.30128699869126,103.835955643589,17.39661,12.2071170806884,7013.64575555636,1591402899.12253,-0.0670166015625,-36.773681640625,-17.2796630859375,184.871276855468,184.72883605957,12.9995393753051,210253.930032875,0.084381103515625,-0.062973022460938,-1.00251770019531,210253.891366875,-0.014013287611306,0.018428541719913,-0.033033583313227,210251.253249,0,1.313233,101.2218
1591402899.18997,9.05481004714966,228,1591402876.20435,1.30128699869126,103.835955643589,17.39661,12.2071170806884,7013.64575555636,1591402899.17209,0.4034423828125,-36.4580078125,-17.9903564453125,184.916015625,184.773574829101,12.9991521835327,210253.969949875,0.099929809570313,-0.061874389648438,-0.999908447265625,210253.931282875,-0.010665693320334,0.02146827429533,-0.0345025844872,210251.253249,0,1.313233,101.2218
1591402899.22174,9.08658027648926,229,1591402876.20435,1.30128699869126,103.835955643589,17.39661,12.2071170806884,7013.64575555636,1591402899.17209,0.4034423828125,-36.4580078125,-17.9903564453125,184.916015625,184.773574829101,12.9991521835327,210254.009865875,0.09954833984375,-0.061859130859375,-0.980712890625,210253.971199875,-0.013896906748414,0.009808422066271,-0.033621076494455,210251.253249,0,1.313233,101.2218
1591402899.26158,9.12641978263855,230,1591402876.20435,1.30128699869126,103.835955643589,17.39661,12.2071170806884,7013.64575555636,1591402899.22204,1.77392578125,-35.6683044433593,-18.4623718261718,184.964813232421,184.822372436523,12.9987382888793,210254.049781875,0.078704833984375,-0.058853149414063,-0.983200073242187,210254.011115875,-0.011739213950932,-0.012211658991873,-0.033045835793018,210251.253249,0,1.313233,101.2218
1591402899.31081,9.17565011978149,231,1591402876.20435,1.30128699869126,103.835955643589,17.39661,12.2071170806884,7013.64575555636,1591402899.27191,2.87890625,-34.9150085449218,-18.8519287109375,185.017623901367,184.875183105468,12.998267173767,210254.089697875,0.080108642578125,-0.059738159179688,-1.00592041015625,210254.051031875,-0.011945875361562,-0.000416252063587,-0.036850690841675,210251.253249,0,1.313233,101.2218
1591402899.34147,9.20631003379822,232,1591402876.20435,1.30128699869126,103.835955643589,17.39661,12.2071170806884,7013.64575555636,1591402899.32187,3.4195556640625,-35.4526977539062,-18.6283264160156,185.077331542968,184.93489074707,12.9977979660034,210254.129614875,0.073074340820313,-0.056015014648438,-0.99542236328125,210254.090947875,-0.008554872125387,-0.015733689069748,-0.036013927310705,210251.253249,0,1.313233,101.2218
1591402899.3814,9.24624013900757,233,1591402876.20435,1.30128699869126,103.835955643589,17.39661,12.2071170806884,7013.64575555636,1591402899.37174,4.2056884765625,-35.4921264648437,-18.2828063964843,185.13525390625,184.992813110351,12.9973316192627,210254.169530875,0.073089599609375,-0.055892944335938,-1.00370788574218,210254.130864875,-0.013883325271308,0.004581968765706,-0.035995550453663,210251.253249,0,1.313233,101.2218
1591402899.42984,9.29467988014221,234,1591402876.20435,1.30128699869126,103.835955643589,17.39661,12.2071170806884,7013.64575555636,1591402899.42165,4.431640625,-35.4380493164062,-17.7483215332031,185.194900512695,185.052459716796,12.9968671798706,210254.209446875,0.071975708007813,-0.059432983398438,-1.00300598144531,210254.210696875,-0.012857741676271,0.006167881190777,-0.035897012799978,210251.253249,0,1.313233,101.2218
1591402899.46119,9.32603001594543,235,1591402876.20435,1.30128699869126,103.835955643589,17.39661,12.2071170806884,7013.64575555636,1591402899.42165,4.431640625,-35.4380493164062,-17.7483215332031,185.194900512695,185.052459716796,12.9968671798706,210254.249362875,0.068267822265625,-0.0625,-0.965499877929687,210254.210696875,-0.012857741676271,0.006167881190777,-0.035897012799978,210251.253249,0,1.313233,101.2218
1591402899.50116,9.3659999370575,236,1591402876.20435,1.30128699869126,103.835955643589,17.39661,12.2071170806884,7013.64575555636,1591402899.47136,4.6279296875,-35.1214599609375,-17.7391967773437,185.261169433593,185.118728637695,12.9964056015014,210254.289279875,0.081817626953125,-0.059112548828125,-0.992385864257812,210254.250612875,-0.010272877290845,0.025559954345226,-0.037955105304718,210251.253249,0,1.313233,101.2218
1591402899.54884,9.41367983818054,237,1591402876.20435,1.30128699869126,103.835955643589,17.39661,12.2071170806884,7013.64575555636,1591402899.52141,4.877197265625,-33.9769897460937,-17.1896362304687,185.324432373046,185.181991577148,12.9959459304809,210254.329195875,0.079986572265625,-0.060394287109375,-0.98065185546875,210254.290529875,-0.015384016558528,0.015353656373918,-0.034601118415594,210251.253249,0,1.313233,101.2218
1591402899.58092,9.44576001167297,238,1591402876.20435,1.30128699869126,103.835955643589,17.39661,12.2071170806884,7013.64575555636,1591402899.57131,4.24755859375,-33.3616943359375,-16.6593933105468,185.386932373046,185.244491577148,12.9955101013183,210254.369111875,0.08111572265625,-0.06060791015625,-0.976806640625,210254.330445875,-0.010347978211939,0.006254167295992,-0.035833898931742,210251.253249,0,1.313233,101.2218
1591402899.62079,9.48562979698181,239,1591402876.20435,1.30128699869126,103.835955643589,17.39661,12.2071170806884,7013.64575555636,1591402899.57131,4.24755859375,-33.3616943359375,-16.6593933105468,185.386932373046,185.244491577148,12.9955101013183,210254.409027875,0.083099365234375,-0.0584716796875,-0.99365234375,210254.370361875,-0.011523764580488,0.026702184230089,-0.032906550914049,210251.253249,0,1.313233,101.2218
1591402899.66997,9.53481006622314,240,1591402876.20435,1.30128699869126,103.835955643589,17.39661,12.2071170806884,7013.64575555636,1591402899.62125,3.7452392578125,-33.2336730957031,-16.2403564453125,185.445602416992,185.303161621093,12.9951581954956,210254.448944875,0.08892822265625,-0.058929443359375,-0.990707397460937,210254.410277875,-0.013445767574012,0.028013525530696,-0.032903622835875,210251.253249,0,1.313233,101.2218
1591402899.7007,9.56554007530212,241,1591402876.20435,1.30128699869126,103.835955643589,17.39661,12.2071170806884,7013.64575555636,1591402899.67131,2.9564208984375,-32.8209838867187,-15.4341430664062,185.501190185546,185.358749389648,12.9947061538696,210254.488860875,0.083541870117188,-0.055526733398438,-0.985198974609375,210254.450194875,-0.0103959152475,0.015206916257739,-0.035851206630468,210251.253249,0,1.313233,101.2218
1591402899.74054,9.60537981987,242,1591402876.20435,1.30128699869126,103.835955643589,17.39661,12.2071170806884,7013.64575555636,1591402899.72118,2.5592041015625,-32.2825012207031,-14.8191223144531,185.55320739746,185.410766601562,12.9942531585693,210254.528776875,0.093963623046875,-0.05584716796875,-1.00064086914062,210254.490110875,-0.012527509592474,0.027326695621014,-0.036727387458086,210251.253249,0,1.313233,101.2218
1591402899.78988,9.65472006797791,243,1591402876.20435,1.30128699869126,103.835955643589,17.39661,12.2071170806884,7013.64575555636,1591402899.77094,4.4710693359375,-31.2247619628906,-14.5575561523437,185.606613159179,185.464172363281,12.9938020706176,210254.568694125,0.095672607421875,-0.054595947265625,-1.00460815429687,210254.569944125,-0.011678493581712,0.018806178122759,-0.03680381923914,210251.253249,0,1.313233,101.2218
1591402899.82043,9.68527007102966,244,1591402876.20435,1.30128699869126,103.835955643589,17.39661,12.2071170806884,7013.64575555636,1591402899.77094,4.4710693359375,-31.2247619628906,-14.5575561523437,185.606613159179,185.464172363281,12.9938020706176,210254.608610125,0.096206665039063,-0.054595947265625,-1.005859375,210254.569944125,-0.011678493581712,0.018806178122759,-0.03680381923914,210251.253249,0,1.313233,101.2218
1591402899.8606,9.72544002532959,245,1591402876.20435,1.30128699869126,103.835955643589,17.39661,12.2071170806884,7013.64575555636,1591402899.82075,8.5220947265625,-30.6475830078125,-14.9195861816406,185.673538208007,185.531097412109,12.9933528900146,210254.648526125,0.093719482421875,-0.054443359375,-1.00654602050781,210254.609860125,-0.009451292455196,0.026528280228376,-0.037589721381664,210251.253249,0,1.313233,101.2218
1591402899.90574,9.77058005332947,246,1591402876.20435,1.30128699869126,103.835955643589,17.39661,12.2071170806884,7013.64575555636,1591402899.87066,12.416015625,-30.8519897460937,-15.0751953125,185.755538940429,185.613098144531,12.9929075241088,210254.688442125,0.09326171875,-0.052108764648438,-1.00289916992187,210254.649776125,-0.008504006080329,0.014522217214108,-0.036346022039652,210252.209205,0,1.313233,101.2218
1591402899.94016,9.8050000667572,247,1591402876.20435,1.30128699869126,103.835955643589,17.39661,12.2071170806884,7013.64575555636,1591402899.92064,15.183837890625,-31.647705078125,-15.2028198242187,185.922073364257,185.779632568359,12.9924631118774,210254.728359125,0.089981079101563,-0.055328369140625,-1.00372314453125,210254.689692125,-0.012117915786803,0.006449110805988,-0.034395791590214,210252.209205,0,1.313233,101.2218
1591402899.98011,9.84494996070862,248,1591402876.20435,1.30128699869126,103.835955643589,17.39661,12.2071170806884,7013.64575555636,1591402899.97042,16.240966796875,-32.6129455566406,-14.7105102539062,186.206634521484,186.064193725585,12.9920206069946,210254.768275125,0.085830688476563,-0.056396484375,-1.01307678222656,210254.729609125,-0.011663047596812,0.013955762609839,-0.033121202141047,210252.209205,0,1.313233,101.2218
1591402900.02554,9.89037990570068,249,1591402876.20435,1.30128699869126,103.835955643589,17.39661,12.2071170806884,7013.64575555636,1591402900.02028,16.9483642578125,-33.5806274414062,-14.607177734375,186.561782836914,186.419342041015,12.9915828704834,210254.808191125,0.089263916015625,-0.053939819335938,-0.999603271484375,210254.769525125,-0.00933597702533,0.002898584585637,-0.034952390938997,210252.209205,0,1.313233,101.2218
1591402900.05985,9.92469000816345,250,1591402876.20435,1.30128699869126,103.835955643589,17.39661,12.2071170806884,7013.64575555636,1591402900.02028,16.9483642578125,-33.5806274414062,-14.607177734375,186.561782836914,186.419342041015,12.9915828704834,210254.848107125,0.084152221679688,-0.050628662109375,-1.00001525878906,210254.809441125,-0.006682936567813,0.003848001360893,-0.037885062396526,210252.209205,0,1.313233,101.2218
1591402900.09983,9.96466994285584,251,1591402876.20435,1.30128699869126,103.835955643589,17.39661,12.2071170806884,7013.64575555636,1591402900.07024,17.2030029296875,-34.5776977539062,-13.7884826660156,186.88818359375,186.745742797851,12.9911575317382,210254.888024125,0.08074951171875,-0.054580688476563,-1.01986694335937,210254.849357125,-0.012657205574214,0.010018545202911,-0.037279728800058,210252.209205,0,1.313233,101.2218
1591402900.1471,10.0119400024414,252,1591402876.20435,1.30128699869126,103.835955643589,17.39661,12.2071170806884,7013.64575555636,1591402900.12015,17.0130615234375,-35.352294921875,-13.3385925292968,187.218215942382,187.075775146484,12.9908075332641,210254.927940125,0.083831787109375,-0.048980712890625,-1.01187133789062,210254.889274125,-0.00902305636555,0.012363725341856,-0.038117293268442,210252.209205,0,1.313233,101.2218
1591402900.17961,10.044450044632,253,1591402876.20435,1.30128699869126,103.835955643589,17.39661,12.2071170806884,7013.64575555636,1591402900.17015,17.5018310546875,-35.2749938964843,-12.8699035644531,187.525451660156,187.383010864257,12.9904804229736,210254.967856125,0.0777587890625,-0.0576171875,-0.99224853515625,210254.929190125,-0.005815810989588,-0.000221308684559,-0.035187017172575,210252.209205,0,1.313233,101.2218
1591402900.21955,10.0843899250031,254,1591402876.20435,1.30128699869126,103.835955643589,17.39661,12.2071170806884,7013.64575555636,1591402900.17015,17.5018310546875,-35.2749938964843,-12.8699035644531,187.525451660156,187.383010864257,12.9904804229736,210255.007772125,0.08575439453125,-0.052352905273438,-1.00933837890625,210254.969106125,-0.010815629735589,0.01649428717792,-0.037902906537056,210252.209205,0,1.313233,101.2218
1591402900.26877,10.1336100101471,255,1591402876.20435,1.30128699869126,103.835955643589,17.39661,12.2071170806884,7013.64575555636,1591402900.2201,16.7025146484375,-35.3543701171875,-11.8978271484375,187.697265625,187.554824829101,12.990156173706,210255.047689125,0.087753295898438,-0.052886962890625,-0.994338989257812,210255.009022125,-0.007654990069568,0.004254666157067,-0.039397206157446,210252.209205,0,1.313233,101.2218
1591402900.29951,10.1643500328064,256,1591402876.20435,1.30128699869126,103.835955643589,17.39661,12.2071170806884,7013.64575555636,1591402900.26977,16.8525390625,-34.5416564941406,-11.1582641601562,187.79197692871,187.649536132812,12.9897518157959,210255.087605125,0.08648681640625,-0.048904418945313,-1.00297546386718,210255.048939125,-0.008052600547671,0.011247861199081,-0.038987081497908,210252.209205,0,1.313233,101.2218
1591402900.33923,10.2040700912476,257,1591402876.20435,1.30128699869126,103.835955643589,17.39661,12.2071170806884,7013.64575555636,1591402900.31972,18.0570068359375,-33.8847045898437,-10.7227478027343,188.190368652343,188.047927856445,12.9893188476562,210255.127521125,0.096405029296875,-0.051864624023438,-1.01071166992187,210255.088855125,-0.005802229046822,0.010004164651036,-0.039897348731756,210252.209205,0,1.313233,101.2218
1591402900.39004,10.2548799514771,258,1591402876.20435,1.30128699869126,103.835955643589,17.39661,12.2071170806884,7013.64575555636,1591402900.37005,19.2088623046875,-33.5516357421875,-10.0978393554687,188.694152832031,188.551712036132,12.9888858795166,210255.167438125,0.086074829101563,-0.055633544921875,-1.01631164550781,210255.128771125,-0.010837467387319,0.009123989380896,-0.035968653857708,210252.209205,0,1.313233,101.2218
1591402900.41927,10.2841100692749,259,1591402876.20435,1.30128699869126,103.835955643589,17.39661,12.2071170806884,7013.64575555636,1591402900.37005,19.2088623046875,-33.5516357421875,-10.0978393554687,188.694152832031,188.551712036132,12.9888858795166,210255.207354125,0.0850830078125,-0.054092407226563,-0.997772216796875,210255.168688125,-0.006711964961141,-0.002331863855943,-0.038791071623564,210252.209205,0,1.313233,101.2218
1591402900.45896,10.3238000869751,260,1591402876.20435,1.30128699869126,103.835955643589,17.39661,12.2071170806884,7013.64575555636,1591402900.41949,19.723876953125,-34.0835266113281,-9.31399536132812,189.291412353515,189.148971557617,12.9884548187255,210255.247270125,0.082290649414063,-0.045913696289063,-1.00006103515625,210255.208604125,-0.008610266260803,0.003294862806797,-0.039843019098043,210252.209205,0,1.313233,101.2218
1591402900.50853,10.3733699321747,261,1591402876.20435,1.30128699869126,103.835955643589,17.39661,12.2071170806884,7013.64575555636,1591402900.46941,18.7674560546875,-35.48486328125,-8.2879638671875,189.715240478515,189.572799682617,12.9880266189575,210255.287186125,0.078231811523438,-0.0460205078125,-0.996856689453125,210255.248520125,-0.011510981246829,-0.007955927401781,-0.040839042514563,210252.209205,0,1.313233,101.2218
1591402900.53891,10.4037501811981,262,1591402876.20435,1.30128699869126,103.835955643589,17.39661,12.2071170806884,7013.64575555636,1591402900.51958,16.1392822265625,-36.4159240722656,-7.55618286132812,189.810821533203,189.668380737304,12.9875993728637,210255.327103125,0.08154296875,-0.053939819335938,-0.998016357421875,210255.288436125,-0.01201085653156,0.001393099548295,-0.038649924099445,210252.209205,0,1.313233,101.2218
1591402900.57879,10.4436299800873,263,1591402876.20435,1.30128699869126,103.835955643589,17.39661,12.2071170806884,7013.64575555636,1591402900.56925,11.33349609375,-37.491943359375,-7.11322021484375,189.889114379882,189.746673583984,12.9871749877929,210255.367019125,0.072860717773438,-0.055557250976563,-0.994354248046875,210255.328353125,-0.006968161091208,0.002417084993795,-0.038440600037575,210252.209205,0,1.313233,101.2218
1591402900.62789,10.492730140686,264,1591402876.20435,1.30128699869126,103.835955643589,17.39661,12.2071170806884,7013.64575555636,1591402900.61935,8.3974609375,-36.22802734375,-7.34725952148437,189.95767211914,189.815231323242,12.9867515563964,210255.406935125,0.07427978515625,-0.052139282226563,-0.990646362304687,210255.408185125,-0.012127502821386,0.010832141153514,-0.039991624653339,210252.209205,0,1.313233,101.2218
1591402900.65873,10.52357006073,265,1591402876.20435,1.30128699869126,103.835955643589,17.39661,12.2071170806884,7013.64575555636,1591402900.61935,8.3974609375,-36.22802734375,-7.34725952148437,189.95767211914,189.815231323242,12.9867515563964,210255.446852125,0.071243286132813,-0.046539306640625,-0.975509643554687,210255.408185125,-0.012127502821386,0.010832141153514,-0.039991624653339,210252.209205,0,1.313233,101.2218
1591402900.69841,10.5632500648499,266,1591402876.20435,1.30128699869126,103.835955643589,17.39661,12.2071170806884,7013.64575555636,1591402900.66893,-3.4881591796875,5.33734130859375,8.005126953125,184.922485351562,184.780044555664,13.0596122741699,210255.486768125,0.070831298828125,-0.050567626953125,-0.987930297851562,210255.448102125,-0.008322911337018,0.017634654417634,-0.037724208086729,210252.209205,0,1.313233,101.2218
1591402900.74856,10.6133999824524,267,1591402876.20435,1.30128699869126,103.835955643589,17.39661,12.2071170806884,7013.64575555636,1591402900.71912,-4.201416015625,6.83639526367187,6.89413452148437,176.966690063476,176.824249267578,13.0592050552368,210255.526684125,0.076553344726563,-0.056961059570313,-1.00161743164062,210255.488018125,-0.007235808763653,0.02056972309947,-0.038114096969366,210252.209205,0,1.313233,101.2218
1591402900.77883,10.6436700820923,268,1591402876.20435,1.30128699869126,103.835955643589,17.39661,12.2071170806884,7013.64575555636,1591402900.76904,-4.6051025390625,8.04116821289062,5.30923461914062,169.583282470703,169.440841674804,13.0068702697753,210255.566600125,0.077804565429688,-0.056167602539063,-0.993896484375,210255.527934125,-0.003367034485564,0.020583838224411,-0.038792137056589,210252.209205,0,1.313233,101.2218
1591402900.81836,10.6831998825073,269,1591402876.20435,1.30128699869126,103.835955643589,17.39661,12.2071170806884,7013.64575555636,1591402900.76904,-4.6051025390625,8.04116821289062,5.30923461914062,169.583282470703,169.440841674804,13.0068702697753,210255.606517125,0.079177856445313,-0.0511474609375,-0.993850708007812,210255.567850125,-0.00691090291366,0.036572124809027,-0.039023831486702,210252.209205,0,1.313233,101.2218
1591402900.87298,10.7378199100494,270,1591402876.20435,1.30128699869126,103.835955643589,17.39661,12.2071170806884,7013.64575555636,1591402900.86875,-5.5703125,9.06793212890625,2.30105590820312,156.130111694335,155.987670898437,13.006043434143,210255.646433125,0.092025756835938,-0.0467529296875,-1.000732421875,210255.607767125,-0.00245969556272,0.038750324398279,-0.041154894977808,210253.165255,0,1.051643,101.225
1591402900.89823,10.7630701065063,271,1591402876.20435,1.30128699869126,103.835955643589,17.39661,12.2071170806884,7013.64575555636,1591402900.86875,-5.5703125,9.06793212890625,2.30105590820312,156.130111694335,155.987670898437,13.006043434143,210255.686349125,0.091827392578125,-0.057846069335938,-0.980239868164062,210255.647683125,-0.00589757040143,0.024466993287206,-0.037926875054836,210253.165255,0,1.051643,101.225
1591402900.93803,10.8028700351715,272,1591402876.20435,1.30128699869126,103.835955643589,17.39661,12.2071170806884,7013.64575555636,1591402900.91855,-6.3035888671875,9.316650390625,1.5792236328125,150.015716552734,149.873275756835,13.0056209564209,210255.726266125,0.08978271484375,-0.060958862304688,-0.999542236328125,210255.687599125,-0.002969158347696,0.042496327310801,-0.03616439551115,210253.165255,0,1.051643,101.225
1591402900.99113,10.8559701442719,273,1591402876.20435,1.30128699869126,103.835955643589,17.39661,12.2071170806884,7013.64575555636,1591402900.96877,-5.68017578125,9.64340209960937,0.77337646484375,144.102005004882,143.959564208984,13.0051898956298,210255.766182125,0.1072998046875,-0.0498046875,-1.00314331054687,210255.727516125,-0.006001433357596,0.023540213704109,-0.036798227578402,210253.165255,0,1.051643,101.225
1591402901.01788,10.8827199935913,274,1591402876.20435,1.30128699869126,103.835955643589,17.39661,12.2071170806884,7013.64575555636,1591402900.96877,-5.68017578125,9.64340209960937,0.77337646484375,144.102005004882,143.959564208984,13.0051898956298,210255.806098125,0.10107421875,-0.046112060546875,-1.01686096191406,210255.767432125,-0.006975351367146,0.018776351585984,-0.038390532135963,210253.165255,0,1.051643,101.225
1591402901.05781,10.9226500988007,275,1591402876.20435,1.30128699869126,103.835955643589,17.39661,12.2071170806884,7013.64575555636,1591402901.0188,-5.665283203125,9.45413208007812,0.384002685546875,138.486206054687,138.343765258789,13.0047512054443,210255.846014125,0.096725463867188,-0.045883178710938,-0.994354248046875,210255.807348125,-0.006974818650633,0.011157047003508,-0.037691451609135,210253.165255,0,1.051643,101.225
1591402901.10977,10.9746098518372,276,1591402876.20435,1.30128699869126,103.835955643589,17.39661,12.2071170806884,7013.64575555636,1591402901.06864,-6.1070556640625,9.53225708007812,-0.056243896484375,133.174942016601,133.032501220703,13.0043048858642,210255.885931125,0.091293334960938,-0.047592163085938,-1.02577209472656,210255.847264125,-0.002907639369369,0.006750314496458,-0.035588886588812,210253.165255,0,1.051643,101.225
1591402901.13762,11.0024600028992,277,1591402876.20435,1.30128699869126,103.835955643589,17.39661,12.2071170806884,7013.64575555636,1591402901.11835,-6.70458984375,10.0332641601562,-0.450286865234375,128.135025024414,127.992584228515,13.0038871765136,210255.925847125,0.099929809570313,-0.04693603515625,-1.01225280761718,210255.887181125,-0.002171807922423,0.019379822537303,-0.036001142114401,210253.165255,0,1.051643,101.225
1591402901.17764,11.0424799919128,278,1591402876.20435,1.30128699869126,103.835955643589,17.39661,12.2071170806884,7013.64575555636,1591402901.16817,-6.04833984375,10.8982543945312,-0.74359130859375,123.216552734375,123.074119567871,12.9938783645629,210255.965763125,0.08349609375,-0.04766845703125,-1.00381469726562,210255.927097125,-0.005261873826385,0.000308394053718,-0.036972399801016,210253.165255,0,1.051643,101.225
1591402901.23202,11.0968601703644,279,1591402876.20435,1.30128699869126,103.835955643589,17.39661,12.2071170806884,7013.64575555636,1591402901.21792,-5.693115234375,10.9691467285156,-1.45318603515625,118.462837219238,118.320404052734,12.9936428070068,210256.005679125,0.075332641601563,-0.044754028320313,-0.99786376953125,210255.967013125,-0.004225105047226,-0.007450193166733,-0.037106357514858,210253.165255,0,1.051643,101.225
1591402901.25736,11.1221997737885,280,1591402876.20435,1.30128699869126,103.835955643589,17.39661,12.2071170806884,7013.64575555636,1591402901.21792,-5.693115234375,10.9691467285156,-1.45318603515625,118.462837219238,118.320404052734,12.9936428070068,210256.045596125,0.072250366210938,-0.04522705078125,-1.02532958984375,210256.006929125,-0.006256031803787,0.017327325418592,-0.039821449667215,210253.165255,0,1.051643,101.225
