,TimeStamp,TimeElapsed,Category,Acc-X,Acc-Y,Acc-Z,TimeInterval,Acc-Y-Adjusted,V-btw2,V(t),S-btw2,S(t)
0,1595636607.61845,0.0,Acceleration,0.039520263671875,0.0050201416015625,-0.9991302490234376,0.0,-0.0016399129231770835,0.0,0.0,0.0,0.0
1,1595636607.631866,1.3416051864624024e-05,Acceleration,0.0420379638671875,0.0070037841796875,-1.006484985351562,1.3416051864624024e-05,-0.006215718587239584,-5.269577988656238e-08,-5.269577988656238e-08,-3.534846580024662e-13,-3.534846580024662e-13
2,1595636607.671869,5.341911315917969e-05,Acceleration,0.040985107421875,0.0069580078125,-1.003921508789062,4.000306129455567e-05,-0.010761617024739583,-3.3957269855212266e-07,-3.92268478438685e-07,-8.899966249835688e-12,-9.253450907838154e-12
3,1595636607.7240539,0.00010560393333435059,Acceleration,0.0401458740234375,0.0072021484375,-1.003326416015625,5.2184820175170896e-05,-0.015467020670572915,-6.843683707847957e-07,-1.0766368492234807e-06,-3.8327280189200296e-11,-4.758073109703845e-11
4,1595636607.751666,0.00013321614265441895,Acceleration,0.03973388671875,0.008544921875,-1.009628295898438,2.7612209320068364e-05,-0.021049702962239583,-5.04153708316153e-07,-1.5807905575396338e-06,-3.668872090421479e-11,-8.426945200125323e-11
5,1595636607.791477,0.00017302703857421874,Acceleration,0.0388336181640625,0.0087890625,-1.004638671875,3.981089591979979e-05,-0.026791890462239582,-9.523083482296589e-07,-2.5330989057692928e-06,-8.188881262467634e-11,-1.661582646259296e-10
6,1595636607.845,0.00022655010223388673,Acceleration,0.0387115478515625,0.00982666015625,-1.005203247070312,5.352306365966799e-05,-0.03321197509765625,-1.6057953580942318e-06,-4.138894263863525e-06,-1.7855275757756364e-10,-3.4471102220349323e-10
7,1595636607.8714259,0.0002529759407043457,Acceleration,0.039215087890625,0.009552001953125,-1.005340576171875,2.6425838470458976e-05,-0.039452616373697916,-9.60111378371948e-07,-5.099005642235473e-06,-1.2205962536242014e-10,-4.667706475659133e-10
8,1595636607.911273,0.00029282307624816896,Acceleration,0.0385284423828125,0.0076141357421875,-1.003036499023438,3.984713554382326e-05,-0.04442718505859375,-1.6711849085307533e-06,-6.770190550766227e-06,-2.364767347493849e-10,-7.032473823152982e-10
9,1595636607.968387,0.00034993696212768554,Acceleration,0.03924560546875,0.00714111328125,-1.002517700195312,5.7113885879516574e-05,-0.04909271240234375,-2.670642375524038e-06,-9.440832926290264e-06,-4.629372724293842e-10,-1.1661846547446824e-09
10,1595636607.9911618,0.0003727118968963623,Acceleration,0.0395965576171875,0.0067138671875,-1.003021240234375,2.277493476867678e-05,-0.05347910563151042,-1.1680332324128067e-06,-1.060886615870307e-05,-2.2831529439616086e-10,-1.3944999491408431e-09
11,1595636608.0310268,0.00041257691383361815,Acceleration,0.03948974609375,0.006591796875,-1.0013427734375,3.9865016937255836e-05,-0.05778574625651042,-2.2177876025186064e-06,-1.2826653761221678e-05,-4.671286992705984e-10,-1.8616286484114415e-09
12,1595636608.084318,0.0004658679962158203,Acceleration,0.039825439453125,0.0047149658203125,-1.000656127929688,5.329108238220215e-05,-0.060866190592447925,-3.161545070712843e-06,-1.5988198831934522e-05,-7.677873416864491e-10,-2.6294159900978905e-09
13,1595636608.110918,0.0004924681186676026,Acceleration,0.0415802001953125,0.0044403076171875,-1.000106811523438,2.660012245178227e-05,-0.06376719156901042,-1.657631613537284e-06,-1.7645830445471807e-05,-4.473346486629192e-10,-3.07675063876081e-09
14,1595636608.150693,0.000532243013381958,Acceleration,0.04205322265625,0.00482177734375,-0.9998779296875,3.977489471435546e-05,-0.06691741943359375,-2.59898332170754e-06,-2.0244813767179345e-05,-7.535481921086508e-10,-3.830298830869461e-09
15,1595636608.203995,0.0005855450630187989,Acceleration,0.0435638427734375,0.0040130615234375,-1.003173828125,5.330204963684083e-05,-0.06625946044921875,-3.549300330996631e-06,-2.3794114098175975e-05,-1.1736825595162113e-09,-5.003981390385672e-09
16,1595636608.231011,0.0006125609874725341,Acceleration,0.0438995361328125,0.004302978515625,-1.004730224609375,2.7015924453735267e-05,-0.06449493408203125,-1.7662254223250726e-06,-2.5560339520501048e-05,-6.666780952087798e-10,-5.670659485594452e-09
17,1595636608.270447,0.0006519970893859863,Acceleration,0.0438232421875,0.0059051513671875,-1.00518798828125,3.9436101913452185e-05,-0.06380706787109375,-2.5298654123616894e-06,-2.8090204932862737e-05,-1.0578841693875255e-09,-6.728543654981978e-09
18,1595636608.324742,0.0007062921524047852,Acceleration,0.0427703857421875,0.0067901611328125,-1.0067138671875,5.429506301879883e-05,-0.06353790283203126,-3.4571016047266317e-06,-3.154730653758937e-05,-1.6190112217862676e-09,-8.347554876768245e-09
19,1595636608.350401,0.0007319509983062744,Acceleration,0.0414276123046875,0.008636474609375,-1.006820678710938,2.565884590148928e-05,-0.06359771728515626,-1.6310766425885974e-06,-3.317838318017796e-05,-8.303932491679005e-10,-9.177948125936147e-09
20,1595636608.39021,0.0007717599868774414,Acceleration,0.04071044921875,0.009368896484375,-1.004486083984375,3.980898857116699e-05,-0.06397654215494793,-2.5393011180131006e-06,-3.5717684298191066e-05,-1.3713413814223713e-09,-1.0549289507358518e-08
21,1595636608.445824,0.00082737398147583,Acceleration,0.0401458740234375,0.0100860595703125,-1.005401611328125,5.5613994598388604e-05,-0.06414601643880208,-3.5627036407822695e-06,-3.9280387938973334e-05,-2.0854711921436096e-09,-1.2634760699502128e-08
22,1595636608.470135,0.0008516850471496582,Acceleration,0.0391845703125,0.0102691650390625,-1.003677368164062,2.4311065673828197e-05,-0.06461456298828125,-1.5651534513259972e-06,-4.084554139029933e-05,-9.739733650502325e-10,-1.360873406455236e-08
23,1595636608.50996,0.000891510009765625,Acceleration,0.0386505126953125,0.0083160400390625,-1.000396728515625,3.98249626159668e-05,-0.06507314046223958,-2.5824039708337903e-06,-4.342794536113312e-05,-1.6780942296964855e-09,-1.5286828294248845e-08
24,1595636608.5656788,0.0009472289085388183,Acceleration,0.03753662109375,0.008758544921875,-1.000778198242188,5.5718898773193305e-05,-0.06612986246744793,-3.6552434194891215e-06,-4.708318878062224e-05,-2.5215903605456937e-09,-1.780841865479454e-08
25,1595636608.5899448,0.0009714949131011963,Acceleration,0.0377960205078125,0.0084228515625,-1.002197265625,2.426600456237793e-05,-0.06724639892578124,-1.6182544837405052e-06,-4.870144326436275e-05,-1.1621551591046485e-09,-1.8970573813899187e-08
26,1595636608.629726,0.0010112760066986084,Acceleration,0.03875732421875,0.00604248046875,-1.00140380859375,3.9781093597412174e-05,-0.06688751220703126,-2.6679968366806906e-06,-5.136944010104344e-05,-1.9904645887674704e-09,-2.0961038402666655e-08
27,1595636608.686439,0.0010679891109466552,Acceleration,0.0377349853515625,0.007232666015625,-1.0028076171875,5.671310424804673e-05,-0.06853240966796875,-3.84004207327961e-06,-5.520948217432305e-05,-3.0222107648236646e-09,-2.398324916749032e-08
28,1595636608.709625,0.0010911750793457032,Acceleration,0.03839111328125,0.0056915283203125,-1.004913330078125,2.318596839904802e-05,-0.06934987386067709,-1.598467134341881e-06,-5.6807949308664934e-05,-1.2986163132535432e-09,-2.5281865480743863e-08
29,1595636608.749436,0.0011309859752655028,Acceleration,0.0399017333984375,0.0057525634765625,-1.004837036132812,3.981089591979965e-05,-0.06995798746744793,-2.7729853840719337e-06,-5.958093469273687e-05,-2.3167728736007207e-09,-2.7598638354344585e-08
30,1595636608.804874,0.0011864240169525146,Acceleration,0.0408477783203125,0.0055389404296875,-1.005401611328125,5.54380416870118e-05,-0.07095489501953126,-3.905967126775074e-06,-6.348690181951194e-05,-3.411319925448201e-09,-3.100995827979279e-08
31,1595636608.82936,0.0012109100818634034,Acceleration,0.0413970947265625,0.0058135986328125,-1.0054931640625,2.4486064910888726e-05,-0.07194183349609376,-1.749489284993619e-06,-6.523639110450556e-05,-1.575963453040418e-09,-3.258592173283321e-08
32,1595636608.8695369,0.001251086950302124,Acceleration,0.041839599609375,0.00640869140625,-1.004501342773438,4.017686843872073e-05,-0.07227081298828125,-2.8970062625012385e-06,-6.81333973670068e-05,-2.6791902225599824e-09,-3.526511195539319e-08
33,1595636608.926936,0.0013084859848022461,Acceleration,0.041534423828125,0.007843017578125,-1.003402709960938,5.739903450012202e-05,-0.07295867919921875,-4.168016316252757e-06,-7.230141368325956e-05,-4.030411282246179e-09,-3.929552323763937e-08
34,1595636608.949154,0.0013307039737701417,Acceleration,0.0427398681640625,0.0071868896484375,-1.003021240234375,2.221798896789558e-05,-0.07201161702473959,-1.6104742210882304e-06,-7.391188790434779e-05,-1.6242827608165247e-09,-4.0919805998455895e-08
35,1595636608.988927,0.0013704769611358643,Acceleration,0.0428009033203125,0.006744384765625,-1.003875732421875,3.977298736572259e-05,-0.07029693603515626,-2.8300181414427497e-06,-7.674190604579053e-05,-2.995975721688513e-09,-4.391578172014441e-08
36,1595636609.046626,0.0014281761646270752,Acceleration,0.04095458984375,0.0064239501953125,-1.00408935546875,5.769920349121089e-05,-0.06790435791015625,-3.9870522910496185e-06,-8.072895833684016e-05,-4.542971723975141e-09,-4.8458753444119546e-08
37,1595636609.0688539,0.001450403928756714,Acceleration,0.041290283203125,0.00823974609375,-1.002456665039062,2.2227764129638785e-05,-0.06657847086588542,-1.4946262987602268e-06,-8.222358463560039e-05,-1.8110353447581186e-09,-5.026978878887766e-08
38,1595636609.108645,0.0014901950359344483,Acceleration,0.040924072265625,0.006500244140625,-1.001312255859375,3.979110717773431e-05,-0.06539215087890626,-2.62562857707962e-06,-8.484921321268001e-05,-3.324005802832432e-09,-5.3593794591710096e-08
39,1595636609.166394,0.0015479440689086914,Acceleration,0.041259765625,0.0067901611328125,-0.999908447265625,5.774903297424308e-05,-0.06410614013671875,-3.7392005389847276e-06,-8.858841375166474e-05,-5.007927619269208e-09,-5.8601722210979306e-08
40,1595636609.188632,0.0015701820850372314,Acceleration,0.0414276123046875,0.005645751953125,-0.9988861083984376,2.2238016128540072e-05,-0.062291768391927085,-1.4054193642368796e-06,-8.999383311590161e-05,-1.985657443055933e-09,-6.058737965403524e-08
41,1595636609.2284071,0.001609957218170166,Acceleration,0.04168701171875,0.0058135986328125,-0.9994049072265624,3.9775133132934504e-05,-0.06214223225911458,-2.4746894710794206e-06,-9.246852258698104e-05,-3.6287322449155044e-09,-6.421611189895075e-08
42,1595636609.286391,0.0016679410934448242,Acceleration,0.041290283203125,0.006134033203125,-1.002182006835938,5.798387527465826e-05,-0.0614244588216146,-3.5824378018636136e-06,-9.605096038884465e-05,-5.465545093856668e-09,-6.968165699280742e-08
43,1595636609.3083289,0.0016898789405822754,Acceleration,0.04193115234375,0.0065155029296875,-1.0047607421875,2.19378471374512e-05,-0.06196278889973959,-1.3534252896109462e-06,-9.74043856784556e-05,-2.121996904973577e-09,-7.1803653897781e-08
44,1595636609.348241,0.0017297911643981935,Acceleration,0.0408782958984375,0.00738525390625,-1.007034301757812,3.9912223815918076e-05,-0.06302947998046876,-2.4943597054031437e-06,-9.989874538385873e-05,-3.937403363270254e-09,-7.574105726105126e-08
45,1595636609.40874,0.0017902901172637939,Acceleration,0.0408782958984375,0.0081329345703125,-1.009307861328125,6.049895286560042e-05,-0.06472422281901041,-3.864482622035807e-06,-0.00010376322800589454,-6.160668064310925e-09,-8.190172532536219e-08
46,1595636609.428167,0.0018097171783447265,Acceleration,0.0401763916015625,0.009246826171875,-1.007827758789062,1.942706108093266e-05,-0.06696726481119791,-1.2791892870154725e-06,-0.00010504241729291001,-2.0282400126317176e-09,-8.39299653379939e-08
47,1595636609.46825,0.0018498001098632812,Acceleration,0.0397491455078125,0.009002685546875,-1.0081787109375,4.008293151855466e-05,-0.06866200764973958,-2.7182094199815744e-06,-0.00010776062671289158,-4.26488491991226e-09,-8.819485025790617e-08
48,1595636609.5259562,0.0019075062274932861,Acceleration,0.039154052734375,0.0088043212890625,-1.006515502929688,5.7706117630004945e-05,-0.06929005940755209,-3.980339104455202e-06,-0.00011174096581734679,-6.333292359261675e-09,-9.452814261716784e-08
49,1595636609.54795,0.0019295001029968261,Acceleration,0.0394439697265625,0.0092010498046875,-1.005523681640625,2.199387550353999e-05,-0.07060597737630209,-1.53842800823137e-06,-0.00011327939382557816,-2.474534887874143e-09,-9.700267750504198e-08
50,1595636609.58763,0.0019691801071166993,Acceleration,0.0382080078125,0.0085906982421875,-1.001724243164062,3.9680004119873116e-05,-0.07181223551432292,-2.8255776371224833e-06,-0.00011610497146270065,-4.550986279836691e-09,-1.0155366378487868e-07
51,1595636609.645239,0.0020267891883850096,Acceleration,0.037384033203125,0.008697509765625,-0.999176025390625,5.7609081268310356e-05,-0.0732976277669271,-4.179822953301469e-06,-0.00012028479441600211,-6.809098616751523e-09,-1.083627624016302e-07
52,1595636609.667633,0.0020491831302642824,Acceleration,0.0369720458984375,0.0063934326171875,-0.9999237060546876,2.2393941879272818e-05,-0.07209136962890625,-1.6279163787840194e-06,-0.00012191271079478613,-2.7118784274976337e-09,-1.1107464082912783e-07
53,1595636609.7074199,0.0020889699459075927,Acceleration,0.036102294921875,0.006134033203125,-0.9979095458984376,3.978681564331026e-05,-0.07185211181640624,-2.8635263796604497e-06,-0.00012477623717444659,-4.90748384704701e-09,-1.1598212467617485e-07
54,1595636609.765484,0.0021470341682434083,Acceleration,0.037689208984375,0.0055694580078125,-0.9998016357421876,5.806422233581559e-05,-0.07105458577473958,-4.148883131104726e-06,-0.0001289251203055513,-7.365486013808415e-09,-1.2334761068998326e-07
55,1595636609.78736,0.002168910026550293,Acceleration,0.039459228515625,0.0043182373046875,-1.001495361328125,2.1875858306884526e-05,-0.0701872762044271,-1.5448934798283954e-06,-0.0001304700137853797,-2.8372455994342595e-09,-1.2618485628941752e-07
56,1595636609.827239,0.002208789110183716,Acceleration,0.0392913818359375,0.004364013671875,-1.000747680664062,3.9879083633423146e-05,-0.06924021402994793,-2.780120271927465e-06,-0.00013325013405730715,-5.258458915818612e-09,-1.3144331520523614e-07
57,1595636609.8850698,0.002266619920730591,Acceleration,0.041595458984375,0.0034942626953125,-1.00372314453125,5.783081054687488e-05,-0.06751556396484376,-3.95434874420364e-06,-0.0001372044828015108,-7.820304854544967e-09,-1.392636200597811e-07
58,1595636609.90722,0.0022887699604034425,Acceleration,0.0443878173828125,0.0036163330078125,-1.003952026367188,2.215003967285167e-05,-0.06562143961588543,-1.4744949556188732e-06,-0.00013867897775712967,-3.0554147982287476e-09,-1.4231903485800984e-07
59,1595636609.946901,0.002328451156616211,Acceleration,0.044708251953125,0.004852294921875,-1.005386352539062,3.968119621276843e-05,-0.06396657307942709,-2.571103679292711e-06,-0.00014125008143642238,-5.553959961757503e-09,-1.4787299481976735e-07
60,1595636610.005519,0.0023870689868927004,Acceleration,0.045135498046875,0.006256103515625,-1.007080078125,5.8617830276489445e-05,-0.06274037679036458,-3.713643241159552e-06,-0.00014496372467758193,-8.388616154789381e-09,-1.5626161097455674e-07
61,1595636610.026952,0.0024085021018981933,Acceleration,0.0438690185546875,0.00775146484375,-1.008743286132812,2.143311500549293e-05,-0.06176340738932293,-1.3342519624711569e-06,-0.00014629797664005308,-3.1213227705182016e-09,-1.5938293374507494e-07
62,1595636610.0666509,0.0024482009410858154,Acceleration,0.0430755615234375,0.0079193115234375,-1.008697509765625,3.9698839187622074e-05,-0.06105560302734375,-2.4378860718570656e-06,-0.00014873586271191015,-5.856250471670157e-09,-1.652391842167451e-07
63,1595636610.125865,0.002507415056228638,Acceleration,0.04205322265625,0.008819580078125,-1.006301879882812,5.92141151428225e-05,-0.06106557210286459,-3.6156486627684743e-06,-0.0001523515113746786,-8.91431121860667e-09,-1.7415349543535178e-07
64,1595636610.146612,0.0025281620025634764,Acceleration,0.0422821044921875,0.008514404296875,-1.0030517578125,2.074694633483849e-05,-0.06061696370442709,-1.2622705201404717e-06,-0.00015361378189481908,-3.1739227598926944e-09,-1.7732741819524447e-07
65,1595636610.1863859,0.0025679359436035156,Acceleration,0.04132080078125,0.0090484619140625,-1.003280639648438,3.977394104003919e-05,-0.06091603597005209,-2.416923181735918e-06,-0.000156030705076555,-6.1578907840863085e-09,-1.834853089793308e-07
66,1595636610.226549,0.0026080989837646484,Acceleration,0.0410003662109375,0.0079193115234375,-1.002029418945312,4.0163040161132844e-05,-0.06040761311848959,-2.4363632954191437e-06,-0.00015846706837197415,-6.315593352800067e-09,-1.8980090233213087e-07
67,1595636610.266777,0.002648327112197876,Acceleration,0.042327880859375,0.0085601806640625,-0.9995574951171876,4.0228128433227386e-05,-0.06182322184244793,-2.4585588636546074e-06,-0.00016092562723562875,-6.424285189768676e-09,-1.9622518752189955e-07
68,1595636610.30645,0.002687999963760376,Acceleration,0.0402984619140625,0.0082550048828125,-0.9980621337890624,3.967285156250035e-05,-0.06320892333984376,-2.480190868179026e-06,-0.00016340581810380777,-6.43357664400133e-09,-2.0265876416590088e-07
69,1595636610.346874,0.002728424072265625,Acceleration,0.0418548583984375,0.0072174072265625,-1.001373291015625,4.04241085052489e-05,-0.06428558349609376,-2.5769258890795678e-06,-0.00016598274399288733,-6.657619487292359e-09,-2.0931638365319325e-07
70,1595636610.386207,0.0027677571773529054,Acceleration,0.0399169921875,0.0063934326171875,-0.9970550537109376,3.933310508728036e-05,-0.06564137776692709,-2.5552154105147016e-06,-0.00016853795940340204,-6.578868990278597e-09,-2.1589525264347185e-07
71,1595636610.425964,0.002807514190673828,Acceleration,0.03912353515625,0.006561279296875,-0.9998016357421876,3.9757013320922564e-05,-0.06707692464192709,-2.6382416583995223e-06,-0.00017117620106180156,-6.753010201460562e-09,-2.226482628449324e-07
72,1595636610.466903,0.0028484530448913575,Acceleration,0.0400238037109375,0.00579833984375,-1.001602172851562,4.093885421752952e-05,-0.06858225504557293,-2.7768656902481026e-06,-0.00017395306675204965,-7.0645983906169786e-09,-2.297128612355494e-07
73,1595636610.5059,0.0028874499797821047,Acceleration,0.0398101806640625,0.0067138671875,-1.007003784179688,3.899693489074719e-05,-0.07060597737630209,-2.7139572186570233e-06,-0.00017666702397070667,-6.836554424651601e-09,-2.36549415660201e-07
74,1595636610.5456462,0.0029271962642669676,Acceleration,0.040679931640625,0.009490966796875,-1.013656616210938,3.9746284484862976e-05,-0.07363657633463541,-2.866552787309025e-06,-0.0001795335767580157,-7.0788252051214455e-09,-2.4362824086532244e-07
75,1595636610.586835,0.0029683849811553953,Acceleration,0.038726806640625,0.0110321044921875,-1.014572143554688,4.118871688842769e-05,-0.07675689697265625,-3.0972570969606715e-06,-0.00018263083385497636,-7.458543687901403e-09,-2.5108678455322383e-07
76,1595636610.625654,0.003007204055786133,Acceleration,0.0344696044921875,0.01025390625,-1.014175415039062,3.881907463073762e-05,-0.07839182535807293,-3.0113649155100824e-06,-0.00018564219877048645,-7.148009168987955e-09,-2.5823479372221176e-07
77,1595636610.66536,0.003046910047531128,Acceleration,0.03662109375,0.0067596435546875,-1.002334594726562,3.970599174499484e-05,-0.07763417561848959,-3.0975835533899745e-06,-0.0001887397823238764,-7.432603925403794e-09,-2.6566739764761556e-07
78,1595636610.706826,0.0030883760452270507,Acceleration,0.038055419921875,0.00726318359375,-1.001861572265625,4.146599769592292e-05,-0.07661732991536459,-3.1980962865297194e-06,-0.00019193787861040613,-7.892589505595142e-09,-2.735599871532107e-07
79,1595636610.7453132,0.0031268632411956786,Acceleration,0.0382843017578125,0.006011962890625,-1.001617431640625,3.848719596862785e-05,-0.07498240152994792,-2.9173242864635487e-06,-0.00019485520289686968,-7.443290563639986e-09,-2.810032777168507e-07
80,1595636610.785182,0.0031667320728302,Acceleration,0.0379486083984375,0.0059356689453125,-0.9984893798828124,3.9868831634521425e-05,-0.07294871012369791,-2.948920292013398e-06,-0.00019780412318888308,-7.827434280718761e-09,-2.888307119975695e-07
81,1595636610.826853,0.0032084031105041504,Acceleration,0.0394439697265625,0.004364013671875,-0.99755859375,4.16710376739504e-05,-0.07062591552734375,-2.9914518172639415e-06,-0.00020079557500614703,-8.30503152015518e-09,-2.971357435177247e-07
82,1595636610.8650901,0.003246640205383301,Acceleration,0.0407257080078125,0.003570556640625,-0.9991302490234376,3.8237094879150536e-05,-0.06736602783203126,-2.6382055153953943e-06,-0.00020343378052154243,-7.728278110125069e-09,-3.0486402162784974e-07
83,1595636610.9068391,0.0032883892059326174,Acceleration,0.0435791015625,0.004302978515625,-0.999053955078125,4.174900054931645e-05,-0.06478403727213541,-2.7585665703130293e-06,-0.00020619234709185545,-8.550740713373059e-09,-3.134147623412228e-07
84,1595636610.9468439,0.0033283939361572266,Acceleration,0.0420684814453125,0.0066070556640625,-1.002944946289062,4.000473022460925e-05,-0.06438527425130208,-2.5836917303968135e-06,-0.00020877603882225228,-8.30034916511771e-09,-3.217151115063405e-07
85,1595636610.984761,0.0033663110733032227,Acceleration,0.04254150390625,0.007232666015625,-1.00177001953125,3.791713714599611e-05,-0.06493357340494792,-2.4517002410721046e-06,-0.00021122773906332438,-7.962670423961949e-09,-3.2967778193030245e-07
86,1595636611.024971,0.0034065210819244386,Acceleration,0.042327880859375,0.0086669921875,-1.006500244140625,4.021000862121588e-05,-0.06630930582682293,-2.6386386526913505e-06,-0.00021386637771601572,-8.546519050262708e-09,-3.3822430098056515e-07
87,1595636611.067121,0.0034486711025238036,Acceleration,0.04248046875,0.007598876953125,-1.002609252929688,4.215002059936501e-05,-0.06748565673828125,-2.8197302141052057e-06,-0.00021668610793012093,-9.073898069546234e-09,-3.472981990501114e-07
88,1595636611.104623,0.003486173152923584,Acceleration,0.0417633056640625,0.0077667236328125,-1.00433349609375,3.750205039978029e-05,-0.06817352294921876,-2.543748696916738e-06,-0.00021922985662703765,-8.1738712364457e-09,-3.554720702865571e-07
89,1595636611.147064,0.003528614044189453,Acceleration,0.04376220703125,0.0089111328125,-1.005340576171875,4.244089126586919e-05,-0.06779469807942709,-2.885306242145214e-06,-0.00022211516286918287,-9.365537991586006e-09,-3.648376082781431e-07
90,1595636611.187016,0.003568566083908081,Acceleration,0.0415191650390625,0.008575439453125,-1.007293701171875,3.995203971862791e-05,-0.06618967692057293,-2.6764745358377683e-06,-0.00022479163740502065,-8.927419117539944e-09,-3.7376502739568303e-07
91,1595636611.224313,0.003605863094329834,Acceleration,0.0425262451171875,0.0094757080078125,-1.0068359375,3.729701042175281e-05,-0.06568125406901043,-2.459195743722368e-06,-0.00022725083314874302,-8.429916367659304e-09,-3.8219494376334233e-07
92,1595636611.267004,0.0036485540866851808,Acceleration,0.03961181640625,0.0096893310546875,-1.004867553710938,4.269099235534694e-05,-0.06759531656901042,-2.8448545291273025e-06,-0.00023009568767787033,-9.762288412176736e-09,-3.919572321755191e-07
93,1595636611.304242,0.0036857919692993165,Acceleration,0.0411376953125,0.007598876953125,-1.0048828125,3.723788261413572e-05,-0.06781463623046877,-2.5211899635663324e-06,-0.00023261687764143665,-8.61521809572298e-09,-4.0057245027124206e-07
94,1595636611.344016,0.0037255661487579344,Acceleration,0.03851318359375,0.007843017578125,-1.000717163085938,3.9774179458617904e-05,-0.06901092529296876,-2.7210622192796847e-06,-0.00023533793986071634,-9.306259444927712e-09,-4.098787097161698e-07
95,1595636611.386812,0.003768362045288086,Acceleration,0.0368804931640625,0.0069427490234375,-1.003005981445312,4.279589653015175e-05,-0.06966888427734375,-2.9674633905961214e-06,-0.00023830540325131246,-1.0134995752008774e-08,-4.2001370546817857e-07
96,1595636611.4239519,0.003805501937866211,Acceleration,0.0389556884765625,0.002349853515625,-0.9993133544921876,3.713989257812496e-05,-0.06835296630859375,-2.5630583520978664e-06,-0.00024086846160341032,-8.898232933474685e-09,-4.2891193840165327e-07
97,1595636611.46385,0.003845400094985962,Acceleration,0.038421630859375,0.0037078857421875,-0.9983367919921876,3.989815711975082e-05,-0.06844268798828126,-2.7289472542179178e-06,-0.00024359740885762825,-9.664647709405682e-09,-4.3857658611105894e-07
98,1595636611.506048,0.0038875980377197266,Acceleration,0.038360595703125,0.005157470703125,-0.997772216796875,4.2197942733764645e-05,-0.06900095621744792,-2.8999195136566415e-06,-0.0002464973283712849,-1.0340494827852555e-08,-4.489170809389115e-07
99,1595636611.543709,0.0039252591133117675,Acceleration,0.040435791015625,0.0044403076171875,-0.999603271484375,3.7661075592040905e-05,-0.06758534749348959,-2.571993554447537e-06,-0.0002490693219257324,-9.331786538865235e-09,-4.582488674777767e-07
100,1595636611.583406,0.003964956045150757,Acceleration,0.0415496826171875,0.0037078857421875,-1.002227783203125,3.9696931838989306e-05,-0.06528249104817709,-2.6372227650911893e-06,-0.0002517065446908236,-9.939632721844113e-09,-4.681885001996208e-07
101,1595636611.625381,0.004006931066513062,Acceleration,0.0406646728515625,0.0057373046875,-1.003463745117188,4.1975021362304805e-05,-0.06336842854817709,-2.700062549168562e-06,-0.00025440660723999217,-1.0622055182019706e-08,-4.788105553816405e-07
102,1595636611.663422,0.004044972181320191,Acceleration,0.0404052734375,0.00604248046875,-1.006423950195312,3.8041114807129024e-05,-0.062351582845052086,-2.3912646934817005e-06,-0.00025679787193347384,-9.72339414107821e-09,-4.885339495227187e-07
103,1595636611.7033632,0.004084913253784179,Acceleration,0.043304443359375,0.0069732666015625,-1.005477905273438,3.994107246398874e-05,-0.06183319091796875,-2.4800365238964315e-06,-0.0002592779084573703,-1.0306310070750122e-08,-4.988402595934689e-07
104,1595636611.7472801,0.0041288301944732665,Acceleration,0.041656494140625,0.00732421875,-1.006301879882812,4.3916940689087136e-05,-0.06079640706380208,-2.6927583906460146e-06,-0.0002619706668480163,-1.1445821382978917e-08,-5.102860809764478e-07
105,1595636611.7832038,0.004164753913879394,Acceleration,0.0416259765625,0.0081939697265625,-1.0062255859375,3.5923719406127756e-05,-0.06054718017578125,-2.179556489863888e-06,-0.0002641502233378802,-9.45010961637015e-09,-5.19736190592818e-07
106,1595636611.823146,0.00420469617843628,Acceleration,0.0402679443359375,0.009979248046875,-1.008224487304688,3.9942264556885355e-05,-0.06087615966796875,-2.4249615817098305e-06,-0.00026657518491959,-1.0599187331840433e-08,-5.303353779246585e-07
107,1595636611.8647199,0.004246269941329956,Acceleration,0.040924072265625,0.00848388671875,-1.0068359375,4.157376289367666e-05,-0.06008860270182291,-2.5144801746258295e-06,-0.00026908966509421584,-1.1134801732475417e-08,-5.414701796571339e-07
108,1595636611.9029472,0.004284497261047363,Acceleration,0.040130615234375,0.00872802734375,-1.004531860351562,3.8227319717407116e-05,-0.060826314290364586,-2.311126595232047e-06,-0.00027140079168944787,-1.0330750747838262e-08,-5.518009304049722e-07
109,1595636611.942843,0.004324393033981323,Acceleration,0.0424041748046875,0.0070953369140625,-1.000839233398438,3.989577293395975e-05,-0.06033782958984375,-2.4169685859912104e-06,-0.0002738177602754391,-1.0875957774286734e-08,-5.626768881792589e-07
110,1595636611.9867198,0.004368269920349121,Acceleration,0.0417327880859375,0.00726318359375,-1.004379272460938,4.387688636779772e-05,-0.06054718017578125,-2.6520289185282227e-06,-0.00027646978919396734,-1.2072452138841505e-08,-5.747493403181004e-07
111,1595636612.022676,0.004404226064682007,Acceleration,0.0419464111328125,0.0070343017578125,-1.001663208007812,3.59561443328861e-05,-0.0636076863606771,-2.232065150407554e-06,-0.0002787018543443749,-9.980915872295114e-09,-5.847302561903955e-07
112,1595636612.062466,0.004444015979766846,Acceleration,0.0417327880859375,0.0077362060546875,-0.9995574951171876,3.978991508483878e-05,-0.06623952229817709,-2.583304703269575e-06,-0.00028128515904764445,-1.1140917855740463e-08,-5.958711740461359e-07
113,1595636612.105966,0.004487516164779663,Acceleration,0.041168212890625,0.0066986083984375,-1.003509521484375,4.35001850128177e-05,-0.06724639892578126,-2.9033311349242987e-06,-0.00028418849018256874,-1.2299104180693725e-08,-6.081702782268296e-07
114,1595636612.142275,0.004523825168609619,Acceleration,0.0399627685546875,0.0043792724609375,-1.000991821289062,3.6309003829955444e-05,-0.06720652262369792,-2.4409258217443693e-06,-0.00028662941600431313,-1.036291477097332e-08,-6.185331929978029e-07
115,1595636612.182215,0.004563765048980713,Acceleration,0.0408935546875,0.007965087890625,-1.005142211914062,3.9939880371093854e-05,-0.06998789469401043,-2.7397643076255993e-06,-0.0002893691803119387,-1.1502657515394541e-08,-6.300358505131975e-07
116,1595636612.223856,0.004605406045913697,Acceleration,0.0397491455078125,0.0082244873046875,-1.00054931640625,4.164099693298399e-05,-0.07161285400390625,-2.9481981711190922e-06,-0.0002923173784830578,-1.211100410537023e-08,-6.421468546185677e-07
117,1595636612.262191,0.004643741130828857,Acceleration,0.0397796630859375,0.00762939453125,-1.003677368164062,3.8335084915160425e-05,-0.07264963785807292,-2.7651574378008056e-06,-0.0002950825359208586,-1.125901279891605e-08,-6.534058674174838e-07
118,1595636612.30204,0.004683590173721314,Acceleration,0.04095458984375,0.010528564453125,-1.0069580078125,3.9849042892456735e-05,-0.07497243245442708,-2.9412991058780387e-06,-0.00029802383502673663,-1.181736060784004e-08,-6.652232280253238e-07
119,1595636612.349787,0.004731337070465088,Acceleration,0.0401611328125,0.0095367431640625,-1.00555419921875,4.7746896743774275e-05,-0.07641794840494792,-3.61421044144662e-06,-0.00030163804546818327,-1.4315996944584224e-08,-6.795392249699081e-07
120,1595636612.381909,0.004763458967208862,Acceleration,0.038787841796875,0.005126953125,-1.001235961914062,3.212189674377426e-05,-0.07441416422526043,-2.4225067737764412e-06,-0.0003040605522419597,-9.728093906747039e-09,-6.892673188766551e-07
121,1595636612.421768,0.004803318023681641,Acceleration,0.0401153564453125,0.006378173828125,-1.002273559570312,3.985905647277844e-05,-0.07206146240234376,-2.9191901368176423e-06,-0.00030697974237877735,-1.2177744805215567e-08,-7.014450636818707e-07
122,1595636612.467007,0.004848556995391846,Acceleration,0.0401763916015625,0.00830078125,-1.001251220703125,4.5238971710204884e-05,-0.07194183349609375,-3.257280514662839e-06,-0.00031023702289344017,-1.3961125891607009e-08,-7.154061895734777e-07
123,1595636612.501691,0.004883241176605224,Acceleration,0.0411529541015625,0.003448486328125,-0.9936676025390624,3.468418121337861e-05,-0.06849253336588541,-2.4354255144134885e-06,-0.00031267244840785366,-1.0802552491071969e-08,-7.262087420645497e-07
124,1595636612.541546,0.004923096179962158,Acceleration,0.0413665771484375,0.0046234130859375,-1.003738403320312,3.985500335693375e-05,-0.06687754313151043,-2.6975874266160455e-06,-0.0003153700358344697,-1.2515317658887407e-08,-7.387240597234371e-07
125,1595636612.586499,0.004968049049377442,Acceleration,0.0428924560546875,0.0033111572265625,-0.9962921142578124,4.49528694152837e-05,-0.0642955525716146,-2.9483035209705455e-06,-0.00031831833935544023,-1.4243055389947663e-08,-7.529671151133847e-07
126,1595636612.6214552,0.005003005266189575,Acceleration,0.043487548828125,0.0037689208984375,-1.002777099609375,3.49562168121334e-05,-0.06216217041015626,-2.2102417910597435e-06,-0.0003205285811465,-1.1165835731414787e-08,-7.641329508447995e-07
127,1595636612.661418,0.005042968034744263,Acceleration,0.0443267822265625,0.00640869140625,-1.0023193359375,3.996276855468793e-05,-0.06129486083984376,-2.466842383146313e-06,-0.0003229954235296463,-1.2858500429129374e-08,-7.769914512739289e-07
128,1595636612.706261,0.00508781099319458,Acceleration,0.04156494140625,0.0070037841796875,-1.00421142578125,4.4842958450317175e-05,-0.06149424235026042,-2.7531133262527748e-06,-0.0003257485368558991,-1.4545799230231612e-08,-7.915372505041606e-07
129,1595636612.7410948,0.005122644901275635,Acceleration,0.0399017333984375,0.0067596435546875,-1.009246826171875,3.4833908081054535e-05,-0.06304941813151042,-2.169171210650035e-06,-0.00032791770806654913,-1.138487494565832e-08,-8.029221254498188e-07
130,1595636612.780998,0.0051625480651855465,Acceleration,0.0386199951171875,0.0097198486328125,-1.012374877929688,3.990316390991167e-05,-0.06419586181640625,-2.538744631262158e-06,-0.0003304564526978113,-1.3135606025515405e-08,-8.160577314753342e-07
131,1595636612.826322,0.0052078721523284915,Acceleration,0.038787841796875,0.01202392578125,-1.013717651367188,4.5324087142945e-05,-0.06667816162109376,-2.9658728215145385e-06,-0.00033342232551932584,-1.504484979813269e-08,-8.311025812734669e-07
132,1595636612.8608859,0.005242435932159424,Acceleration,0.038726806640625,0.0080413818359375,-0.994476318359375,3.4563779830932076e-05,-0.06694732666015625,-2.3093009783769597e-06,-0.0003357316264977028,-1.1564244935257332e-08,-8.426668262087243e-07
133,1595636612.900779,0.0052823290824890136,Acceleration,0.0384521484375,0.0088043212890625,-1.00238037109375,3.989315032958997e-05,-0.06582082112630208,-2.6482698393132003e-06,-0.00033837989633701604,-1.3446216159677132e-08,-8.561130423684014e-07
134,1595636612.94545,0.005327000141143799,Acceleration,0.037872314453125,0.0098724365234375,-1.002960205078125,4.467105865478549e-05,-0.06604014078776041,-2.9451843819697606e-06,-0.0003413250807189858,-1.518157044900914e-08,-8.712946128174106e-07
135,1595636612.980657,0.005362207174301147,Acceleration,0.03997802734375,0.012237548828125,-1.001663208007812,3.520703315734817e-05,-0.07068572998046875,-2.4068561328021727e-06,-0.000343731936851788,-1.205941256614414e-08,-8.833540253835547e-07
136,1595636613.020648,0.005402198076248169,Acceleration,0.03887939453125,0.0088043212890625,-1.007339477539062,3.9990901947021575e-05,-0.07227081298828125,-2.858480546274229e-06,-0.0003465904173980622,-1.3803306790321426e-08,-8.971573321738761e-07
137,1595636613.067533,0.005449083089828491,Acceleration,0.0401458740234375,0.0088348388671875,-1.003402709960938,4.688501358032261e-05,-0.07261973063151042,-3.396597552637129e-06,-0.0003499870149506993,-1.632952118770897e-08,-9.134868533615851e-07
138,1595636613.100426,0.00548197603225708,Acceleration,0.042694091796875,0.0043182373046875,-1.003662109375,3.2892942428588805e-05,-0.07318796793619792,-2.39802211731633e-06,-0.00035238503706801563,-1.1551541735250687e-08,-9.250383950968357e-07
139,1595636613.140251,0.005521800994873047,Acceleration,0.0423583984375,0.0044403076171875,-1.000076293945312,3.982496261596691e-05,-0.07306833902994793,-2.912325978638069e-06,-0.0003552973630466537,-1.409171256427222e-08,-9.391301076611079e-07
140,1595636613.185668,0.005567218065261841,Acceleration,0.0409698486328125,0.0012054443359375,-0.9957733154296876,4.5417070388793605e-05,-0.07169260660807292,-3.2873090287951585e-06,-0.00035858467207544885,-1.621121531921788e-08,-9.553413229803258e-07
141,1595636613.220231,0.005601781129837036,Acceleration,0.0466461181640625,0.0025482177734375,-0.9966583251953124,3.456306457519549e-05,-0.07089508056640625,-2.464133719719649e-06,-0.0003610488057951685,-1.2436369183057333e-08,-9.677776921633832e-07
142,1595636613.259992,0.005641541957855225,Acceleration,0.046661376953125,0.006927490234375,-0.998992919921875,3.976082801818853e-05,-0.07123402913411458,-2.82558554359033e-06,-0.0003638743913387588,-1.4411773283818732e-08,-9.82189465447202e-07
143,1595636613.305124,0.005686674118041992,Acceleration,0.0386810302734375,0.0030059814453125,-1.009674072265625,4.513216018676731e-05,-0.06862213134765627,-3.1560053189847588e-06,-0.00036703039665774356,-1.649365598656667e-08,-9.986831214337687e-07
144,1595636613.339921,0.005721471071243286,Acceleration,0.041778564453125,0.0049285888671875,-0.9983367919921876,3.479695320129407e-05,-0.06742584228515625,-2.3670274858159333e-06,-0.0003693974241435595,-1.2812722208276959e-08,-1.0114958436420457e-06
145,1595636613.379782,0.005761332035064697,Acceleration,0.0438232421875,0.00701904296875,-1.004302978515625,3.986096382141077e-05,-0.06566131591796875,-2.652491199114569e-06,-0.00037204991534267405,-1.4777402787371012e-08,-1.0262732464294167e-06
146,1595636613.4234278,0.005804977893829346,Acceleration,0.0384979248046875,0.0091400146484375,-1.01568603515625,4.3645858764648944e-05,-0.06377716064453126,-2.824726733379099e-06,-0.00037487464207605316,-1.6300081870472843e-08,-1.0425733282998895e-06
147,1595636613.459566,0.005841116189956665,Acceleration,0.0205078125,0.0072784423828125,-0.998016357421875,3.613829612731951e-05,-0.06327870686848959,-2.2957912824495107e-06,-0.0003771704333585027,-1.358881381857316e-08,-1.0561621421184627e-06
148,1595636613.499562,0.005881112098693847,Acceleration,0.04638671875,0.008575439453125,-0.9677734375,3.999590873718199e-05,-0.06312917073567709,-2.527898968158561e-06,-0.00037969833232666123,-1.51358270391837e-08,-1.0712979691576463e-06
149,1595636613.5447571,0.005926307201385498,Acceleration,0.0341644287109375,0.0058135986328125,-1.015090942382812,4.51951026916508e-05,-0.06047739664713542,-2.7932057531143327e-06,-0.00038249153807977555,-1.722362473177746e-08,-1.0885215938894239e-06
150,1595636613.579397,0.005960947036743164,Acceleration,0.0469970703125,0.0076904296875,-0.9914093017578124,3.4639835357666224e-05,-0.05750661214192708,-2.043473319645285e-06,-0.0003845350113994208,-1.3284836694459095e-08,-1.101806430583883e-06
151,1595636613.619296,0.006000846147537231,Acceleration,0.0374603271484375,0.0074462890625,-1.0078125,3.989911079406699e-05,-0.056619364420572915,-2.27676249167414e-06,-0.00038681177389109496,-1.5388025423476845e-08,-1.1171944560073597e-06
152,1595636613.666103,0.006047652959823608,Acceleration,0.037017822265625,0.0070343017578125,-0.994903564453125,4.680681228637698e-05,-0.05544301350911458,-2.6226413440599586e-06,-0.00038943441523515493,-1.816680483122393e-08,-1.1353612608385836e-06
153,1595636613.699089,0.006080639123916626,Acceleration,0.0417327880859375,0.0082550048828125,-0.99169921875,3.2986164093017425e-05,-0.05801503499348959,-1.8712729027902156e-06,-0.00039130568813794517,-1.2876810581932232e-08,-1.1482380714205159e-06
154,1595636613.738985,0.006120535135269165,Acceleration,0.0411834716796875,0.0078125,-1.0008544921875,3.98960113525389e-05,-0.06021820068359375,-2.3585172564101624e-06,-0.00039366420539435534,-1.565858389188296e-08,-1.163896655312399e-06
155,1595636613.7871802,0.00616873025894165,Acceleration,0.0417633056640625,0.007110595703125,-1.000015258789062,4.8195123672485456e-05,-0.06407623291015625,-2.995192799426156e-06,-0.0003966593981937815,-1.9044871908107313e-08,-1.1829415272205063e-06
156,1595636613.818939,0.006200489044189453,Acceleration,0.04534912109375,0.0068206787109375,-1.000778198242188,3.17587852478032e-05,-0.06686757405598959,-2.079308122483811e-06,-0.0003987387063162653,-1.263043879382215e-08,-1.1955719660143284e-06
157,1595636613.8587449,0.006240294933319092,Acceleration,0.0417633056640625,0.0084381103515625,-1.006805419921875,3.9805889129638367e-05,-0.06785451253255209,-2.681366221028515e-06,-0.0004014200725372938,-1.59255158185758e-08,-1.2114974818329043e-06
158,1595636613.904814,0.006286364078521728,Acceleration,0.03955078125,0.0082244873046875,-1.009246826171875,4.606914520263652e-05,-0.07126393636067709,-3.204534011213871e-06,-0.0004046246065485077,-1.8566894680308173e-08,-1.2300643765132124e-06
159,1595636613.938581,0.006320131063461304,Acceleration,0.04144287109375,0.007781982421875,-1.004592895507812,3.376698493957539e-05,-0.07312815348307292,-2.4378427615738616e-06,-0.0004070624493100815,-1.3704112295412634e-08,-1.243768488808625e-06
160,1595636613.97839,0.006359940052032471,Acceleration,0.040130615234375,0.0098724365234375,-1.008529663085938,3.980898857116732e-05,-0.07499237060546876,-2.9482641252980345e-06,-0.00041001071343537955,-1.6263428098770797e-08,-1.2600319169073959e-06
161,1595636614.024267,0.0064058170318603514,Acceleration,0.0396881103515625,0.0090789794921875,-1.006393432617188,4.587697982788054e-05,-0.07495249430338542,-3.439508771358888e-06,-0.00041345022220673846,-1.8888950366750544e-08,-1.2789208672741464e-06
162,1595636614.058408,0.006439958095550537,Acceleration,0.039215087890625,0.0083160400390625,-1.004226684570312,3.414106369018562e-05,-0.0756303914388021,-2.5705299463879845e-06,-0.0004160207521531264,-1.4159510682390235e-08,-1.2930803779565365e-06
163,1595636614.098243,0.0064797930717468265,Acceleration,0.0379638671875,0.00836181640625,-1.000991821289062,3.983497619628948e-05,-0.07549082438151042,-3.009955017478237e-06,-0.00041903070717060466,-1.6632127502418807e-08,-1.3097125054589554e-06
164,1595636614.144576,0.0065261261463165285,Acceleration,0.0389556884765625,0.006683349609375,-1.000564575195312,4.633307456970194e-05,-0.07605906168619792,-3.5108860861024815e-06,-0.0004225415932567071,-1.9496316075747122e-08,-1.3292088215347025e-06
165,1595636614.1781301,0.006559680223464966,Acceleration,0.0411224365234375,0.004486083984375,-0.9980316162109376,3.355407714843769e-05,-0.07396555582682292,-2.516968795098378e-06,-0.0004250585620518055,-1.4220220501124799e-08,-1.3434290420358274e-06
166,1595636614.218133,0.006599683046340943,Acceleration,0.039886474609375,0.00445556640625,-0.999786376953125,4.000282287597648e-05,-0.07201161702473959,-2.9197494947584286e-06,-0.0004279783115465639,-1.7061941480616154e-08,-1.3604909835164436e-06
167,1595636614.263407,0.006644957065582276,Acceleration,0.0417327880859375,0.0037689208984375,-0.999298095703125,4.5274019241333015e-05,-0.06987823486328125,-3.2119619422640732e-06,-0.00043119027348882796,-1.9449007525220596e-08,-1.379939991041664e-06
168,1595636614.2978868,0.006679436922073364,Acceleration,0.041259765625,0.00439453125,-1.002105712890625,3.4479856491088576e-05,-0.0673560587565104,-2.3659093748331645e-06,-0.00043355618286366115,-1.4908166858105607e-08,-1.3948481578997697e-06
169,1595636614.33772,0.0067192699909210205,Acceleration,0.0429840087890625,0.003204345703125,-1.002899169921875,3.983306884765628e-05,-0.06434539794921876,-2.623036596147966e-06,-0.00043617921945980913,-1.7322115079997413e-08,-1.4121702729797672e-06
170,1595636614.384833,0.006766383171081543,Acceleration,0.0420684814453125,0.0047607421875,-1.007034301757812,4.7113180160522454e-05,-0.06281016031901042,-2.9953513625514457e-06,-0.0004391745708223606,-2.0620350412880027e-08,-1.4327906233926472e-06
171,1595636614.41764,0.006799190044403076,Acceleration,0.0419921875,0.0081787109375,-1.0057373046875,3.280687332153295e-05,-0.06369740804036458,-2.0751588846905927e-06,-0.0004412497297070512,-1.4441984248333835e-08,-1.447232607640981e-06
172,1595636614.457572,0.0068391220569610596,Acceleration,0.042449951171875,0.0073394775390625,-1.009918212890625,3.9932012557983634e-05,-0.0629796346028646,-2.529234628818828e-06,-0.00044377896433587003,-1.7670488462348893e-08,-1.46490309610333e-06
173,1595636614.506684,0.00688823413848877,Acceleration,0.0424041748046875,0.0116119384765625,-1.007904052734375,4.911208152771039e-05,-0.06519276936848958,-3.1474067767218886e-06,-0.00044692637111259193,-2.1872196525855747e-08,-1.4867752926291857e-06
174,1595636614.537223,0.006918773174285888,Acceleration,0.0413970947265625,0.0080413818359375,-1.009140014648438,3.053903579711831e-05,-0.06536224365234375,-1.993512108068238e-06,-0.00044891988322066017,-1.3679140414898768e-08,-1.5004544330440845e-06
175,1595636614.5771232,0.006958673238754273,Acceleration,0.041839599609375,0.011138916015625,-1.003250122070312,3.9900064468384455e-05,-0.06618967692057293,-2.6244650558995833e-06,-0.00045154434827655973,-1.796429044410667e-08,-1.5184187234881912e-06
176,1595636614.6242368,0.0070057868957519535,Acceleration,0.0394134521484375,0.010498046875,-1.007125854492188,4.7113656997680754e-05,-0.06711680094401043,-3.140277836840451e-06,-0.0004546846261134002,-2.1347880530384293e-08,-1.5397666040185755e-06
177,1595636614.656872,0.007038422107696533,Acceleration,0.040771484375,0.009368896484375,-1.000289916992188,3.263521194457955e-05,-0.06780466715494793,-2.2015953536416675e-06,-0.00045688622146704185,-1.4874653906643873e-08,-1.5546412579252193e-06
178,1595636614.6971712,0.007078721284866333,Acceleration,0.039520263671875,0.00933837890625,-1.004287719726562,4.029917716980025e-05,-0.06844268798828126,-2.745328151916844e-06,-0.0004596315496189587,-1.8467456018132582e-08,-1.573108713943352e-06
179,1595636614.7488382,0.007130388259887695,Acceleration,0.040252685546875,0.011199951171875,-1.00518798828125,5.166697502136195e-05,-0.07139353434244793,-3.6124573031217004e-06,-0.0004632440069220804,-2.3841094163815687e-08,-1.5969498081071676e-06
180,1595636614.776726,0.007158276081085205,Acceleration,0.040252685546875,0.0071868896484375,-0.9986419677734376,2.7887821197510043e-05,-0.07315806070963542,-2.0156145183136887e-06,-0.0004652596214403941,-1.2946971584506001e-08,-1.6098967796916737e-06
181,1595636614.816667,0.007198217153549194,Acceleration,0.0426025390625,0.0063323974609375,-0.9971160888671876,3.994107246398874e-05,-0.07438425699869793,-2.9464992015466954e-06,-0.00046820612064194076,-1.864181142358078e-08,-1.6285385911152544e-06
182,1595636614.865543,0.007247092962265014,Acceleration,0.040496826171875,0.0069122314453125,-1.001800537109375,4.887580871582031e-05,-0.07643788655598958,-3.685777119244449e-06,-0.0004718918977611852,-2.2974025460796454e-08,-1.6515126165760508e-06
183,1595636614.896573,0.007278123140335083,Acceleration,0.0425567626953125,0.004547119140625,-1.002716064453125,3.1030178070068706e-05,-0.07653757731119792,-2.373427942075095e-06,-0.0004742653257032603,-1.4679713563191766e-08,-1.6661923301392426e-06
184,1595636614.93639,0.0073179399967193606,Acceleration,0.0422210693359375,0.0054931640625,-1.005111694335938,3.981685638427754e-05,-0.07803293863932292,-3.0772560174227844e-06,-0.0004773425817206831,-1.8945017692021015e-08,-1.6851373478312635e-06
185,1595636614.985908,0.00736745810508728,Acceleration,0.04278564453125,0.0054168701171875,-1.005584716796875,4.9518108367919804e-05,-0.07846160888671874,-3.874656981691553e-06,-0.00048121723870237464,-2.3733034532421358e-08,-1.7088703823636848e-06
186,1595636615.01635,0.007397900104522705,Acceleration,0.0417633056640625,0.0048980712890625,-1.007125854492188,3.044199943542502e-05,-0.07631825764973958,-2.355904304859012e-06,-0.00048357314300723366,-1.4685074127653691e-08,-1.7235554564913385e-06
187,1595636615.0562038,0.007437753915786743,Acceleration,0.0414276123046875,0.0065765380859375,-1.009201049804688,3.9853811264038e-05,-0.07581980387369792,-3.03164079501584e-06,-0.0004866047838022495,-1.9332643993800408e-08,-1.7428881004851389e-06
188,1595636615.105919,0.007487468957901001,Acceleration,0.04156494140625,0.0066986083984375,-1.005935668945312,4.9715042114257917e-05,-0.0726097615559896,-3.689591048168958e-06,-0.0004902943748504185,-2.428329140690026e-08,-1.767171391892039e-06
189,1595636615.136033,0.007517583131790161,Acceleration,0.0399322509765625,0.007415771484375,-1.006057739257812,3.0114173889159504e-05,-0.07220102945963543,-2.1804286708356344e-06,-0.0004924748035212541,-1.479764096519548e-08,-1.7819690328572346e-06
190,1595636615.175949,0.007557499170303345,Acceleration,0.0405120849609375,0.0073699951171875,-1.004425048828125,3.9916038513184045e-05,-0.06973866780598958,-2.832835211302186e-06,-0.0004953076387325563,-1.9714181003825044e-08,-1.8016832138610596e-06
191,1595636615.2253199,0.00760686993598938,Acceleration,0.038055419921875,0.0085601806640625,-1.004562377929688,4.937076568603538e-05,-0.06847259521484375,-3.4117979408862843e-06,-0.0004987194366734425,-2.4537938912722296e-08,-1.826221152773782e-06
192,1595636615.255915,0.0076374650001525875,Acceleration,0.0387420654296875,0.0071258544921875,-1.000625610351562,3.0595064163207314e-05,-0.06700714111328127,-2.072505612886697e-06,-0.0005007919422863293,-1.529005738556502e-08,-1.841511210159347e-06
193,1595636615.295731,0.007677281141281128,Acceleration,0.039520263671875,0.0066986083984375,-1.002456665039062,3.981614112854009e-05,-0.0652824910481771,-2.633631331991641e-06,-0.0005034255736183209,-1.999203316850575e-08,-1.8615032433278529e-06
194,1595636615.346102,0.007727652072906494,Acceleration,0.0396881103515625,0.0067138671875,-1.003067016601562,5.0370931625366364e-05,-0.062351582845052086,-3.2145236045714025e-06,-0.0005066400972228922,-2.543897442153627e-08,-1.8869422177493891e-06
195,1595636615.375596,0.0077571461200714115,Acceleration,0.0406646728515625,0.007080078125,-0.9987335205078124,2.9494047164917506e-05,-0.06228179931640625,-1.8379714258966202e-06,-0.0005084780686487888,-1.496997153109196e-08,-1.901912189280481e-06
196,1595636615.415431,0.0077969810962677,Acceleration,0.0418853759765625,0.007171630859375,-0.9990081787109376,3.983497619628861e-05,-0.06283009847005208,-2.4919147350980305e-06,-0.0005109699833838869,-2.0304844443037217e-08,-1.922217033723518e-06
197,1595636615.465863,0.007847413063049317,Acceleration,0.0418243408203125,0.0057373046875,-0.9990081787109376,5.0431966781616655e-05,-0.06206247965494792,-3.1492891756352314e-06,-0.0005141192725595221,-2.5848633651965072e-08,-1.948065667375483e-06
198,1595636615.495558,0.007877108097076415,Acceleration,0.0428314208984375,0.007659912109375,-0.9998931884765624,2.969503402709857e-05,-0.06409617106119792,-1.873142712914397e-06,-0.0005159924152724365,-1.5294600810940976e-08,-1.963360268186424e-06
199,1595636615.535466,0.007917016029357911,Acceleration,0.0419921875,0.0079803466796875,-1.004241943359375,3.990793228149554e-05,-0.06572113037109376,-2.590370037263195e-06,-0.0005185827853096997,-2.064387852247328e-08,-1.984004146708897e-06
200,1595636615.58616,0.007967710018157959,Acceleration,0.042449951171875,0.0079193115234375,-1.007736206054688,5.069398880004801e-05,-0.06735605875651042,-3.3731067675883186e-06,-0.0005219558920772881,-2.6374528028736365e-08,-2.0103786747376333e-06
201,1595636615.6150641,0.007996614217758179,Acceleration,0.040771484375,0.0088653564453125,-1.007522583007812,2.8904199600219768e-05,-0.06994801839192707,-1.984332225911206e-06,-0.0005239402243031993,-1.5115395054478145e-08,-2.0254940697921117e-06
202,1595636615.65483,0.008036380052566528,Acceleration,0.041229248046875,0.0088348388671875,-1.008041381835938,3.976583480834982e-05,-0.07142344156901043,-2.8108770617109403e-06,-0.0005267511013649102,-2.0890808845542063e-08,-2.0463848786376536e-06
203,1595636615.706448,0.008087998151779175,Acceleration,0.0414886474609375,0.0087127685546875,-1.007431030273438,5.161809921264658e-05,-0.07273935953776042,-3.720704885151167e-06,-0.0005304718062500613,-2.7285918467576144e-08,-2.07367079710523e-06
204,1595636615.734793,0.008116343021392823,Acceleration,0.039825439453125,0.0087738037109375,-1.008544921875,2.8344869613648044e-05,-0.07362660725911459,-2.0743621223664807e-06,-0.0005325461683724278,-1.506555294381934e-08,-2.088736350049049e-06
205,1595636615.774601,0.008156151056289673,Acceleration,0.0399322509765625,0.007843017578125,-1.00567626953125,3.980803489684985e-05,-0.07393564860026042,-2.937081715353943e-06,-0.0005354832500877818,-2.1258076180463134e-08,-2.109994426229512e-06
206,1595636615.826802,0.008208352088928223,Acceleration,0.0395355224609375,0.0077972412109375,-1.005599975585938,5.220103263854983e-05,-0.07343719482421876,-3.846507304818566e-06,-0.0005393297573926003,-2.8053174441910667e-08,-2.1380476006714227e-06
207,1595636615.854496,0.008236046075820923,Acceleration,0.040191650390625,0.0068206787109375,-1.003250122070312,2.7693986892700015e-05,-0.07323781331380208,-2.0310078764305086e-06,-0.0005413607652690308,-1.496431458482817e-08,-2.153011915256251e-06
208,1595636615.894381,0.008275931119918823,Acceleration,0.040252685546875,0.006683349609375,-0.9988250732421876,3.98850440979006e-05,-0.07322784423828124,-2.9208946051464254e-06,-0.0005442816598741773,-2.16504480006943e-08,-2.174662363256945e-06
209,1595636615.944759,0.008326308965682984,Acceleration,0.040618896484375,0.004852294921875,-0.999603271484375,5.037784576416085e-05,-0.07201161702473959,-3.658425589189139e-06,-0.0005479400854633664,-2.751188931343868e-08,-2.2021742525703836e-06
210,1595636615.974276,0.008355826139450073,Acceleration,0.041290283203125,0.0040740966796875,-1.000823974609375,2.9517173767088997e-05,-0.07004770914713543,-2.096594907925404e-06,-0.0005500366803712918,-1.6204585494684e-08,-2.2183788380650677e-06
211,1595636616.0141358,0.008395685911178589,Acceleration,0.041900634765625,0.0040283203125,-1.000885009765625,3.985977172851589e-05,-0.06799407958984376,-2.751157094026003e-06,-0.0005527878374653178,-2.197916676878893e-08,-2.240358004833857e-06
212,1595636616.065075,0.008446624994277955,Acceleration,0.0421905517578125,0.0052337646484375,-1.000640869140625,5.0939083099365776e-05,-0.06766510009765625,-3.4551771136466786e-06,-0.0005562430145789644,-2.8246507366022064e-08,-2.268604512199879e-06
213,1595636616.0938401,0.008475390195846557,Acceleration,0.041595458984375,0.006256103515625,-1.003814697265625,2.8765201568602128e-05,-0.06674794514973958,-1.9332091699954895e-06,-0.00055817622374896,-1.60282470112154e-08,-2.2846327592110946e-06
214,1595636616.133768,0.008515318155288696,Acceleration,0.0413818359375,0.00653076171875,-1.005783081054688,3.992795944213895e-05,-0.06580088297526042,-2.6462021167390238e-06,-0.000560822425865699,-2.2339666348811178e-08,-2.3069724255599056e-06
215,1595636616.185717,0.008567267179489135,Acceleration,0.0413055419921875,0.007720947265625,-1.006332397460938,5.1949024200439314e-05,-0.06567128499348958,-3.414925417746408e-06,-0.0005642373512834455,-2.9222878795030882e-08,-2.3361953043549365e-06
216,1595636616.2140741,0.008595624208450317,Acceleration,0.0411529541015625,0.0075531005859375,-1.007461547851562,2.83570289611821e-05,-0.06481394449869791,-1.8500867158582266e-06,-0.0005660874379993037,-1.6026326392616485e-08,-2.352221630747553e-06
217,1595636616.253587,0.00863513708114624,Acceleration,0.0400848388671875,0.009124755859375,-1.006271362304688,3.95128726959227e-05,-0.06500335693359376,-2.564727252611182e-06,-0.0005686521652519148,-2.2418410743143616e-08,-2.3746400414906968e-06
218,1595636616.307004,0.008688554048538208,Acceleration,0.039794921875,0.009490966796875,-1.005203247070312,5.3416967391967454e-05,-0.06551177978515625,-3.4858614011318216e-06,-0.0005721380266530467,-3.0468776241031816e-08,-2.4051088177317286e-06
219,1595636616.3334901,0.00871504020690918,Acceleration,0.03961181640625,0.00982666015625,-1.004501342773438,2.6486158370971763e-05,-0.06619964599609376,-1.7442648412543405e-06,-0.000573882291494301,-1.5176837821401047e-08,-2.4202856555531296e-06
220,1595636616.3733392,0.008754889249801636,Acceleration,0.03936767578125,0.00927734375,-1.003341674804688,3.9849042892456735e-05,-0.06713673909505208,-2.6566636643110998e-06,-0.0005765389551586121,-2.292159280113274e-08,-2.4432072483542624e-06
221,1595636616.4267051,0.008808255195617676,Acceleration,0.0394439697265625,0.007354736328125,-1.004150390625,5.3365945816039734e-05,-0.06684763590494792,-3.5751014482229743e-06,-0.0005801140566068351,-3.086294097691701e-08,-2.4740701893311796e-06
222,1595636616.453291,0.008834841012954711,Acceleration,0.03961181640625,0.008056640625,-1.00384521484375,2.6585817337035703e-05,-0.06765513102213541,-1.7879329964246624e-06,-0.0005819019896032597,-1.544657317362301e-08,-2.4895167625048025e-06
223,1595636616.493027,0.008874577045440674,Acceleration,0.04034423828125,0.007537841796875,-1.003448486328125,3.973603248596212e-05,-0.06821339925130208,-2.69943816638262e-06,-0.0005846014277696423,-2.3176108843857735e-08,-2.51269287134866e-06
224,1595636616.5460222,0.00892757225036621,Acceleration,0.040863037109375,0.0062408447265625,-1.002914428710938,5.2995204925536735e-05,-0.06912058512369793,-3.639021322596792e-06,-0.0005882404490922392,-3.1077497804773266e-08,-2.5437703691534333e-06
225,1595636616.573,0.00895455002784729,Acceleration,0.0416107177734375,0.0067138671875,-1.001541137695312,2.697777748108046e-05,-0.07084523518880209,-1.8879833776737585e-06,-0.000590128432469913,-1.58948867387067e-08,-2.55966525589214e-06
226,1595636616.612905,0.008994455099105835,Acceleration,0.040374755859375,0.006561279296875,-1.002365112304688,3.9905071258544006e-05,-0.07250010172526042,-2.8601029420678315e-06,-0.0005929885354119808,-2.3606183455259743e-08,-2.5832714393473997e-06
227,1595636616.666106,0.009047656059265137,Acceleration,0.0414581298828125,0.0062408447265625,-1.00335693359375,5.3200960159302535e-05,-0.07315806070963543,-3.8745770482880555e-06,-0.0005968631124602688,-3.1650625056966016e-08,-2.6149220644043656e-06
228,1595636616.692697,0.009074247121810913,Acceleration,0.0413970947265625,0.00689697265625,-1.003265380859375,2.659106254577527e-05,-0.07357676188151042,-1.9509174225821985e-06,-0.000598814029882851,-1.589716283829987e-08,-2.6308192272426655e-06
229,1595636616.732573,0.009114123106002807,Acceleration,0.040740966796875,0.0079803466796875,-1.005783081054688,3.987598419189463e-05,-0.07452382405598959,-2.9528283118270415e-06,-0.0006017668581946781,-2.3937172257035185e-08,-2.6547563994997006e-06
230,1595636616.7853,0.009166850090026855,Acceleration,0.04095458984375,0.0065460205078125,-1.005508422851562,5.272698402404748e-05,-0.07375620524088541,-3.90917936791081e-06,-0.0006056760375625889,-3.183241113727152e-08,-2.6865888106369723e-06
231,1595636616.812474,0.009194024085998535,Acceleration,0.0396881103515625,0.007354736328125,-1.006423950195312,2.7173995971680256e-05,-0.07362660725911459,-2.0024899765849533e-06,-0.0006076785275391739,-1.6485846032147574e-08,-2.70307465666912e-06
232,1595636616.852646,0.009234196186065673,Acceleration,0.040557861328125,0.0080413818359375,-1.005828857421875,4.017210006713838e-05,-0.07291880289713541,-2.943518440588356e-06,-0.0006106220459797622,-2.447084627562739e-08,-2.7275455029447473e-06
233,1595636616.906176,0.009287726163864135,Acceleration,0.0406341552734375,0.0081787109375,-1.005142211914062,5.352997779846207e-05,-0.07206146240234376,-3.88039519134813e-06,-0.0006145024411711103,-3.2790443298769217e-08,-2.7603359462435167e-06
234,1595636616.9322429,0.009313792943954468,Acceleration,0.0399169921875,0.0070648193359375,-1.004135131835938,2.6066780090332545e-05,-0.07025705973307292,-1.8548928096425154e-06,-0.0006163573339807529,-1.604227554045989e-08,-2.7763782217839767e-06
235,1595636616.9720259,0.009353575944900513,Acceleration,0.040435791015625,0.0065765380859375,-1.00201416015625,3.978300094604516e-05,-0.06849253336588543,-2.7599375967596205e-06,-0.0006191172715775125,-2.457544370086962e-08,-2.8009536654848462e-06
236,1595636617.026845,0.009408395051956177,Acceleration,0.0404052734375,0.00579833984375,-1.00164794921875,5.4819107055664035e-05,-0.06747568766276041,-3.726828232368763e-06,-0.0006228440998098813,-3.404160668854243e-08,-2.8349952721733887e-06
237,1595636617.051989,0.009433539152145386,Acceleration,0.04095458984375,0.005828857421875,-1.001510620117188,2.5144100189208873e-05,-0.06602020263671876,-1.6783170202688705e-06,-0.0006245224168301501,-1.568195433353071e-08,-2.8506772265069194e-06
238,1595636617.091892,0.009473442077636719,Acceleration,0.0419921875,0.0054473876953125,-1.001632690429688,3.990292549133252e-05,-0.06465443929036459,-2.6071502502114816e-06,-0.0006271295670803617,-2.4972287927529842e-08,-2.8756495144344494e-06
239,1595636617.1478288,0.009529378890991211,Acceleration,0.0420379638671875,0.0052490234375,-1.00067138671875,5.593681335449262e-05,-0.06400644938151043,-3.5984400578309136e-06,-0.0006307280071381926,-3.518027217779906e-08,-2.9108297866122485e-06
240,1595636617.171673,0.009553223133087159,Acceleration,0.0423431396484375,0.0062408447265625,-1.002334594726562,2.384424209594775e-05,-0.06369740804036458,-1.522500846476791e-06,-0.0006322505079846694,-1.5057382738285064e-08,-2.9258871693505337e-06
241,1595636617.2115688,0.009593118906021119,Acceleration,0.0418243408203125,0.0063629150390625,-1.003341674804688,3.989577293395975e-05,-0.06356781005859376,-2.5386721218334537e-06,-0.0006347891801065028,-2.52747638472003e-08,-2.951161933197734e-06
242,1595636617.26547,0.009647020101547242,Acceleration,0.0411376953125,0.0080108642578125,-1.004562377929688,5.3901195526123366e-05,-0.06472422281901041,-3.4575469742897944e-06,-0.0006382467270807926,-3.430907867253912e-08,-2.985471011870273e-06
243,1595636617.2915099,0.009673059940338135,Acceleration,0.03997802734375,0.0096588134765625,-1.005447387695312,2.6039838790892916e-05,-0.06652862548828126,-1.7089015053836986e-06,-0.0006399556285861763,-1.664209164185372e-08,-3.002113103512127e-06
244,1595636617.331332,0.009712882041931152,Acceleration,0.0395355224609375,0.0096893310546875,-1.0054931640625,3.9822101593017106e-05,-0.06764516194661459,-2.671541097176152e-06,-0.0006426271696833524,-2.5537571247072667e-08,-3.0276506747591997e-06
245,1595636617.3853571,0.009766907215118407,Acceleration,0.0387420654296875,0.009185791015625,-1.005615234375,5.4025173187255415e-05,-0.06936981201171874,-3.701128848673125e-06,-0.0006463282985320255,-3.4818021200497845e-08,-3.0624686959596976e-06
246,1595636617.411084,0.009792634010314941,Acceleration,0.03875732421875,0.0095367431640625,-1.005218505859375,2.572679519653384e-05,-0.07079538981119791,-1.8030007204895042e-06,-0.000648131299252515,-1.6651148481195224e-08,-3.079119844440893e-06
247,1595636617.451067,0.009832617044448853,Acceleration,0.0390777587890625,0.0091705322265625,-1.003890991210938,3.9983034133911355e-05,-0.07153310139973959,-2.845362461157508e-06,-0.0006509766617136725,-2.5971138973473528e-08,-3.105090983414366e-06
248,1595636617.506026,0.00988757610321045,Acceleration,0.0389556884765625,0.007537841796875,-1.003509521484375,5.495905876159654e-05,-0.07111440022786458,-3.919886212073218e-06,-0.0006548965479257458,-3.588478123188373e-08,-3.14097576464625e-06
249,1595636617.5310779,0.009912627935409545,Acceleration,0.0402069091796875,0.00701904296875,-1.002349853515625,2.5051832199095986e-05,-0.0710844930013021,-1.781171406037125e-06,-0.0006566777193317829,-1.642866922999394e-08,-3.157404433876244e-06
250,1595636617.5707679,0.009952317953109741,Acceleration,0.03985595703125,0.006134033203125,-1.003509521484375,3.969001770019569e-05,-0.07079538981119791,-2.815607530064908e-06,-0.0006594933268618477,-2.6119426059955137e-08,-3.183523859936199e-06
251,1595636617.624725,0.010006275177001953,Acceleration,0.040863037109375,0.006072998046875,-1.003585815429688,5.395722389221237e-05,-0.07097483317057292,-3.824763831338141e-06,-0.0006633180906931859,-3.568761591209589e-08,-3.2192114758482953e-06
252,1595636617.6510632,0.010032613277435303,Acceleration,0.0416107177734375,0.0050506591796875,-1.003982543945312,2.6338100433349887e-05,-0.07046641031901041,-1.8626468382232705e-06,-0.0006651807375314091,-1.7495067781683512e-08,-3.2367065436299786e-06
253,1595636617.690808,0.010072358131408691,Acceleration,0.0427093505859375,0.00439453125,-1.003997802734375,3.9744853973388075e-05,-0.06977854410807291,-2.787007617104446e-06,-0.0006679677451485135,-2.6492895884478703e-08,-3.2631994395144575e-06
254,1595636617.744329,0.010125879049301147,Acceleration,0.04278564453125,0.004425048828125,-1.003646850585938,5.3520917892456096e-05,-0.06924021402994793,-3.720205769908113e-06,-0.0006716879509184216,-3.5849801256679775e-08,-3.299049240771137e-06
255,1595636617.770449,0.010151998996734619,Acceleration,0.042022705078125,0.0053253173828125,-1.00177001953125,2.611994743347175e-05,-0.06864206949869792,-1.8007389988876384e-06,-0.0006734886899173092,-1.7567971573681697e-08,-3.316617212344819e-06
256,1595636617.810349,0.010191899061203004,Acceleration,0.04119873046875,0.0052032470703125,-1.003662109375,3.9900064468384455e-05,-0.06788441975911459,-2.723707861514459e-06,-0.0006762123977788237,-2.6926580206062164e-08,-3.3435437925508813e-06
257,1595636617.865537,0.010247087001800537,Acceleration,0.0410003662109375,0.006744384765625,-1.004440307617188,5.518794059753383e-05,-0.06705698649088541,-3.7235691561363407e-06,-0.00067993596693496,-3.742151769663347e-08,-3.380965310247515e-06
258,1595636617.890216,0.010271766185760499,Acceleration,0.040008544921875,0.0077972412109375,-1.005111694335938,2.467918395996152e-05,-0.06584075927734376,-1.6399039578391625e-06,-0.0006815758708927992,-1.680050055470828e-08,-3.3977658108022234e-06
259,1595636617.930019,0.01031156897544861,Acceleration,0.038818359375,0.0089111328125,-1.00439453125,3.980278968811028e-05,-0.06533233642578126,-2.610527570504924e-06,-0.0006841863984633042,-2.7180574185568604e-08,-3.424946384987792e-06
260,1595636617.984992,0.010366542100906371,Acceleration,0.0391693115234375,0.009765625,-1.004425048828125,5.497312545776206e-05,-0.06571116129557292,-3.6019353203299803e-06,-0.0006877883337836341,-3.771086954034522e-08,-3.4626572545281374e-06
261,1595636618.009967,0.010391517162322998,Acceleration,0.0400848388671875,0.0095367431640625,-1.002822875976562,2.497506141662699e-05,-0.06571116129557292,-1.641140289114816e-06,-0.0006894294740727489,-1.7198049667642776e-08,-3.4798553041957802e-06
262,1595636618.0498052,0.010431355237960816,Acceleration,0.039459228515625,0.00848388671875,-1.001815795898438,3.983807563781756e-05,-0.06526255289713542,-2.608870366287507e-06,-0.0006920383444390364,-2.7517509722541664e-08,-3.507372813918322e-06
263,1595636618.107327,0.010488877058029174,Acceleration,0.0388031005859375,0.007171630859375,-1.000396728515625,5.752182006835832e-05,-0.06502329508463542,-3.7471395525304535e-06,-0.0006957854839915669,-3.9915076272782674e-08,-3.5472878901911044e-06
264,1595636618.129739,0.01051128911972046,Acceleration,0.0392608642578125,0.00738525390625,-1.000930786132812,2.2412061691285193e-05,-0.06526255289713542,-1.4599872312344263e-06,-0.0006972454712228013,-1.561034785306718e-08,-3.5628982380441715e-06
265,1595636618.169443,0.010550992965698242,Acceleration,0.040496826171875,0.007049560546875,-0.9990997314453124,3.9703845977782926e-05,-0.06586069742838542,-2.6030486675153776e-06,-0.0006998485198903167,-2.7735002319820633e-08,-3.590633240363992e-06
266,1595636618.223349,0.010604899168014527,Acceleration,0.04095458984375,0.006500244140625,-0.999908447265625,5.390620231628465e-05,-0.06613983154296876,-3.557823610293206e-06,-0.0007034063435006099,-3.782207028363083e-08,-3.6284553106476227e-06
267,1595636618.249419,0.010630969047546387,Acceleration,0.0423583984375,0.0059661865234375,-1.003524780273438,2.606987953186063e-05,-0.06673797607421875,-1.7320542185189155e-06,-0.0007051383977191288,-1.8360295859417196e-08,-3.64681560650704e-06
268,1595636618.289291,0.010670840978622436,Acceleration,0.0430145263671875,0.0055389404296875,-1.006027221679688,3.987193107604821e-05,-0.06748565673828125,-2.6758777181384013e-06,-0.0007078142754372671,-2.8168575798904945e-08,-3.674984182305945e-06
269,1595636618.348249,0.010729799032211303,Acceleration,0.0426025390625,0.00592041015625,-1.006195068359375,5.89580535888673e-05,-0.06846262613932291,-4.007623073606138e-06,-0.0007118218985108733,-4.18494928101645e-08,-3.7168336751161096e-06
270,1595636618.3693779,0.010750927925109864,Acceleration,0.0424957275390625,0.006805419921875,-1.00799560546875,2.112889289856111e-05,-0.06942962646484375,-1.4567553184073859e-06,-0.0007132786538292807,-1.50553984700377e-08,-3.731889073586147e-06
271,1595636618.4090278,0.01079057788848877,Acceleration,0.0411376953125,0.0070037841796875,-1.008407592773438,3.9649963378905403e-05,-0.07060597737630209,-2.7762032820221686e-06,-0.0007160548571113029,-2.833651068251821e-08,-3.7602255842686654e-06
272,1595636618.4664052,0.010847955226898194,Acceleration,0.04095458984375,0.0084381103515625,-1.007843017578125,5.7377338409424564e-05,-0.0717125447591146,-4.0829290032464914e-06,-0.0007201377861145494,-4.120245565574784e-08,-3.801428039924413e-06
273,1595636618.488916,0.010870465993881225,Acceleration,0.03973388671875,0.0082855224609375,-1.006072998046875,2.2510766983030797e-05,-0.07203155517578125,-1.6178949694099663e-06,-0.0007217556810839593,-1.6229063927229993e-08,-3.817657103851643e-06
274,1595636618.52871,0.01091025996208191,Acceleration,0.038238525390625,0.008636474609375,-1.004501342773438,3.979396820068433e-05,-0.07185211181640624,-2.8628510344424813e-06,-0.0007246185321184019,-2.877848472323229e-08,-3.846435588574875e-06
275,1595636618.584333,0.010965883016586304,Acceleration,0.0382537841796875,0.0095062255859375,-1.004318237304688,5.5623054504395225e-05,-0.07168263753255208,-3.991920593155908e-06,-0.0007286104527115578,-4.04165175152819e-08,-3.886852106090157e-06
276,1595636618.60865,0.010990200042724609,Acceleration,0.0382537841796875,0.0074615478515625,-1.000579833984375,2.4317026138304457e-05,-0.07032684326171876,-1.7266241281806643e-06,-0.0007303370768397384,-1.7738632605256792e-08,-3.904590738695414e-06
277,1595636618.6485062,0.011030056238174438,Acceleration,0.03900146484375,0.0068206787109375,-1.001815795898438,3.9856195449829504e-05,-0.06924021402994793,-2.78130595688711e-06,-0.0007331183827966255,-2.9163883415693497e-08,-3.933754622111107e-06
278,1595636618.704937,0.01108648705482483,Acceleration,0.0394744873046875,0.0068817138671875,-0.9998779296875,5.643081665039108e-05,-0.06905080159505209,-3.901937473565372e-06,-0.0007370203202701909,-4.1480563801703624e-08,-3.975235185912811e-06
279,1595636618.728339,0.011109889030456543,Acceleration,0.0408782958984375,0.0061187744140625,-1.000442504882812,2.340197563171359e-05,-0.06822336832682291,-1.6062433896877147e-06,-0.0007386265636598786,-1.726652620937279e-08,-3.992501712122183e-06
280,1595636618.76824,0.011149790048599242,Acceleration,0.0418548583984375,0.0048828125,-1.001739501953125,3.990101814269932e-05,-0.06680775960286459,-2.693939742675807e-06,-0.0007413205034025544,-2.9525697386546392e-08,-4.02202740950873e-06
281,1595636618.826395,0.011207945108413697,Acceleration,0.04144287109375,0.004791259765625,-1.004043579101562,5.8155059814454443e-05,-0.06569122314453124,-3.852743133514586e-06,-0.000745173246536069,-4.322356647074667e-08,-4.065250975979477e-06
282,1595636618.848142,0.011229691982269287,Acceleration,0.042266845703125,0.0049896240234375,-1.003936767578125,2.174687385558989e-05,-0.06505320231119792,-1.421641263853659e-06,-0.0007465948877999227,-1.622064671959674e-08,-4.081471622699074e-06
283,1595636618.8879552,0.011269505262374878,Acceleration,0.0416412353515625,0.0059356689453125,-1.004837036132812,3.981328010559115e-05,-0.06531239827473959,-2.595141086130774e-06,-0.0007491900288860535,-2.977605193286855e-08,-4.111247674631942e-06
284,1595636618.945703,0.011327253103256225,Acceleration,0.0424041748046875,0.0067138671875,-1.005630493164062,5.7747840881347545e-05,-0.06583079020182292,-3.7866179904085512e-06,-0.000752976646876462,-4.337344108459827e-08,-4.15462111571654e-06
285,1595636618.967903,0.011349452972412109,Acceleration,0.0419464111328125,0.00775146484375,-1.00653076171875,2.2199869155883206e-05,-0.06644887288411458,-1.4682956062460632e-06,-0.0007544449424827081,-1.673228102326354e-08,-4.171353396739804e-06
286,1595636619.007746,0.011389296054840087,Acceleration,0.0418701171875,0.0087432861328125,-1.004974365234375,3.984308242797885e-05,-0.0675853474934896,-2.6701682453373827e-06,-0.0007571151107280455,-3.011260589745808e-08,-4.201466002637262e-06
287,1595636619.06545,0.01144700002670288,Acceleration,0.0411224365234375,0.008636474609375,-1.005569458007812,5.7703971862792594e-05,-0.06771494547526041,-3.903682149248173e-06,-0.0007610187928772937,-4.380117802879698e-08,-4.245267180666059e-06
288,1595636619.087717,0.011469267129898071,Acceleration,0.0405120849609375,0.0093536376953125,-1.004348754882812,2.22671031951914e-05,-0.06841278076171875,-1.5155850639227895e-06,-0.0007625343779412165,-1.696255783898842e-08,-4.262229738505047e-06
289,1595636619.127449,0.011508999109268189,Acceleration,0.0391845703125,0.0109405517578125,-1.003433227539062,3.973197937011744e-05,-0.06991811116536459,-2.74808007214841e-06,-0.0007652824580133648,-3.0351593503732756e-08,-4.29258133200878e-06
290,1595636619.185494,0.011567044019699097,Acceleration,0.0392608642578125,0.0095672607421875,-1.0018310546875,5.80449104309079e-05,-0.06995798746744791,-4.05954780828322e-06,-0.0007693420058216481,-4.453856977419169e-08,-4.3371199017829715e-06
291,1595636619.207748,0.011589298009872436,Acceleration,0.038299560546875,0.0072174072265625,-1.00213623046875,2.225399017333901e-05,-0.06979848225911459,-1.5550695519777364e-06,-0.0007708970753736258,-1.7138232688756168e-08,-4.354258134471728e-06
292,1595636619.247643,0.011629193067550659,Acceleration,0.0381622314453125,0.005767822265625,-1.001510620117188,3.989505767822317e-05,-0.06911061604817709,-2.770893244499687e-06,-0.0007736679686181255,-3.0810255758909116e-08,-4.3850683902306365e-06
293,1595636619.305571,0.011687121152877808,Acceleration,0.0388031005859375,0.0062255859375,-0.9987945556640624,5.792808532714862e-05,-0.06868194580078125,-3.991029640116431e-06,-0.0007776589982582419,-4.493270045376043e-08,-4.430001090684397e-06
294,1595636619.3271348,0.011708684921264648,Acceleration,0.0387420654296875,0.005523681640625,-1.00152587890625,2.156376838684075e-05,-0.06829315185546875,-1.476849640312134e-06,-0.000779135847898554,-1.6785181744176263e-08,-4.446786272428573e-06
295,1595636619.3669732,0.011748523235321044,Acceleration,0.039794921875,0.0040435791015625,-1.003097534179688,3.9838314056395846e-05,-0.06774485270182293,-2.7097623745793976e-06,-0.0007818456102731334,-3.109343478342721e-08,-4.477879707212e-06
296,1595636619.423582,0.011805132150650025,Acceleration,0.0401153564453125,0.00537109375,-1.004440307617188,5.660891532898067e-05,-0.06812367757161458,-3.8456850630610355e-06,-0.0007856912953361944,-4.4368281982345406e-08,-4.522247989194345e-06
297,1595636619.446893,0.011828443050384522,Acceleration,0.0409393310546875,0.0052490234375,-1.005783081054688,2.331089973449732e-05,-0.06829315185546875,-1.5899995164363816e-06,-0.0007872812948526308,-1.8333703167502124e-08,-4.540581692361847e-06
298,1595636619.486707,0.01186825704574585,Acceleration,0.0396575927734375,0.00677490234375,-1.007156372070312,3.9813995361327736e-05,-0.0688414510091146,-2.729938221164021e-06,-0.0007900112330737948,-3.139915869515981e-08,-4.571980851057007e-06
299,1595636619.526728,0.011908277988433838,Acceleration,0.0415496826171875,0.0068511962890625,-1.008148193359375,4.002094268798842e-05,-0.06893117268880208,-2.7568951384940592e-06,-0.0007927681282122889,-3.167216105288064e-08,-4.603653012109887e-06
300,1595636619.566674,0.011948224067687988,Acceleration,0.0405731201171875,0.00732421875,-1.006759643554688,3.9946079254149156e-05,-0.06865203857421875,-2.7479549305764885e-06,-0.0007955160831428653,-3.1722863492453386e-08,-4.635375875602341e-06
301,1595636619.606515,0.011988065004348755,Acceleration,0.0398101806640625,0.00628662109375,-1.007110595703125,3.9840936660767365e-05,-0.06704701741536459,-2.7031887473034573e-06,-0.0007982192718901688,-3.174795466694835e-08,-4.667123830269289e-06
302,1595636619.647226,0.012028776168823242,Acceleration,0.0394134521484375,0.005645751953125,-1.004531860351562,4.071116447448668e-05,-0.06509307861328126,-2.6897885915483326e-06,-0.0008009090604817171,-3.255118827750172e-08,-4.69967501854679e-06
303,1595636619.686303,0.012067852973937988,Acceleration,0.0386810302734375,0.0050201416015625,-1.0032958984375,3.907680511474644e-05,-0.062261861165364585,-2.4883120810652063e-06,-0.0008033973725627823,-3.1345584914206956e-08,-4.731020603460997e-06
304,1595636619.726187,0.012107737064361572,Acceleration,0.040008544921875,0.002105712890625,-1.001419067382812,3.9884090423584e-05,-0.05648976643880209,-2.3681503266561787e-06,-0.0008057655228894385,-3.208999921424631e-08,-4.763110602675244e-06
305,1595636619.7669609,0.012148510932922364,Acceleration,0.0399322509765625,0.0003204345703125,-1.000518798828125,4.077386856079189e-05,-0.05044850667317709,-2.180143545992952e-06,-0.0008079456664354315,-3.28986239643057e-08,-4.796009226639549e-06
306,1595636619.806186,0.01218773603439331,Acceleration,0.0407562255859375,-0.0008392333984375,-0.9992218017578124,3.92251014709466e-05,-0.04518483479817709,-1.8756137616097766e-06,-0.0008098212801970413,-3.17285363190011e-08,-4.827737762958551e-06
307,1595636619.8459,0.012227450132369994,Acceleration,0.0417633056640625,-0.0024261474609375,-0.999969482421875,3.971409797668378e-05,-0.039831441243489585,-1.688172358165772e-06,-0.000811509452555207,-3.219484378656565e-08,-4.859932606745116e-06
308,1595636619.886775,0.012268325090408325,Acceleration,0.0428619384765625,-0.0045166015625,-1.000259399414062,4.087495803833073e-05,-0.03281321207682292,-1.4846735780884284e-06,-0.0008129941261332955,-3.3200757806005324e-08,-4.893133364551121e-06
309,1595636619.925882,0.012307432174682617,Acceleration,0.042724609375,-0.0077362060546875,-1.001602172851562,3.9107084274292436e-05,-0.02415008544921875,-1.1138342384462527e-06,-0.0008141079603717418,-3.181560920991477e-08,-4.924948973761036e-06
310,1595636619.966243,0.012347793102264405,Acceleration,0.0427398681640625,-0.011260986328125,-1.003799438476562,4.036092758178712e-05,-0.014151102701822918,-7.729357406302979e-07,-0.0008148808961123721,-3.2873750634046764e-08,-4.9578227243950825e-06
311,1595636620.006794,0.012388344049453735,Acceleration,0.04156494140625,-0.0140380859375,-1.005416870117188,4.055094718933075e-05,-0.0014704386393229179,-3.1673414897037594e-07,-0.0008151976302613424,-3.3050614118721295e-08,-4.990873338513804e-06
312,1595636620.045663,0.012427213191986084,Acceleration,0.04052734375,-0.0153350830078125,-1.007080078125,3.8869142532349174e-05,0.011977844238281249,2.0420692293555753e-07,-0.0008149934233384068,-3.168206420866456e-08,-5.022555402722468e-06
313,1595636620.087477,0.012469027042388916,Acceleration,0.039642333984375,-0.01556396484375,-1.00848388671875,4.181385040283141e-05,0.02657257080078125,8.059706437052107e-07,-0.0008141874526947017,-3.406116271480111e-08,-5.05661656543727e-06
314,1595636620.126926,0.01250847601890564,Acceleration,0.03924560546875,-0.014495849609375,-1.008926391601562,3.944897651672434e-05,0.040519307454427084,1.323352964876321e-06,-0.0008128640997298254,-3.2092759241547526e-08,-5.088709324678817e-06
315,1595636620.165383,0.012546933174133301,Acceleration,0.038055419921875,-0.0156707763671875,-1.008453369140625,3.845715522766101e-05,0.055542704264322916,1.8471358480746798e-06,-0.0008110169638817507,-3.122492306728482e-08,-5.1199342477461015e-06
316,1595636620.205241,0.012586791038513184,Acceleration,0.0372161865234375,-0.01885986328125,-1.007598876953125,3.985786437988269e-05,0.07197174072265625,2.5412267273835136e-06,-0.0008084757371543672,-3.227476022105374e-08,-5.1522090079671555e-06
317,1595636620.2471461,0.012628696203231812,Acceleration,0.03753662109375,-0.021148681640625,-1.003997802734375,4.1905164718627694e-05,0.08947743733723959,3.3827772001434936e-06,-0.0008050929599542237,-3.380843101857849e-08,-5.186017438985734e-06
318,1595636620.285157,0.012666707038879394,Acceleration,0.0375213623046875,-0.0215911865234375,-1.004913330078125,3.801083564758216e-05,0.10686350504557293,3.7315416459022425e-06,-0.0008013614183083215,-3.05313366737382e-08,-5.216548775659472e-06
319,1595636620.326033,0.01270758318901062,Acceleration,0.036895751953125,-0.02423095703125,-1.002334594726562,4.0876150131225614e-05,0.12407012939453126,4.719838955861636e-06,-0.0007966415793524598,-3.2660105221265334e-08,-5.249208880880738e-06
320,1595636620.366786,0.01274833607673645,Acceleration,0.0377349853515625,-0.02728271484375,-1.0010986328125,4.075288772583015e-05,0.14210418701171876,5.423686016001748e-06,-0.0007912178933364581,-3.235492940744367e-08,-5.281563810288181e-06
321,1595636620.405005,0.012786555051803589,Acceleration,0.038177490234375,-0.0350799560546875,-1.0020751953125,3.821897506713946e-05,0.16447479248046876,5.858567186660487e-06,-0.0007853593261497976,-3.012758272148263e-08,-5.311691393009664e-06
322,1595636620.4456868,0.012827236890792846,Acceleration,0.038604736328125,-0.0418548583984375,-1.0028076171875,4.0681838989257285e-05,0.1902348836263021,7.215120965653627e-06,-0.000778144205184144,-3.18030994604313e-08,-5.343494492470095e-06
323,1595636620.486687,0.012868237018585206,Acceleration,0.0393829345703125,-0.046478271484375,-1.003799438476562,4.10001277923594e-05,0.21764984130859374,8.361662923441044e-06,-0.000769782542260703,-3.173259722922498e-08,-5.375227089699321e-06
324,1595636620.524673,0.012906223058700561,Acceleration,0.0394439697265625,-0.051605224609375,-1.007583618164062,3.798604011535575e-05,0.2463109334309896,8.812016300604673e-06,-0.0007609705259600983,-2.907362372806963e-08,-5.40430071342739e-06
325,1595636620.56527,0.012946820020675659,Acceleration,0.0400543212890625,-0.0573577880859375,-1.006088256835938,4.0596961975097184e-05,0.27642751057942705,1.0610796367206175e-05,-0.0007503597295928921,-3.067770845824933e-08,-5.43497842188564e-06
326,1595636620.606816,0.01298836612701416,Acceleration,0.04022216796875,-0.0579376220703125,-1.007904052734375,4.1546106338502184e-05,0.3051085408528646,1.208027931623933e-05,-0.0007382794502766528,-3.0923580833260395e-08,-5.4659020027189005e-06
327,1595636620.644723,0.013026273012161254,Acceleration,0.0387420654296875,-0.0599212646484375,-1.008041381835938,3.790688514709352e-05,0.3342381795247396,1.2117821349262379e-05,-0.0007261616289273904,-2.7756199897036675e-08,-5.493658202615937e-06
328,1595636620.685539,0.013067089080810546,Acceleration,0.038482666015625,-0.06085205078125,-1.006927490234375,4.081606864929192e-05,0.3638263956705729,1.424612581140534e-05,-0.0007119155031159851,-2.9348327472229634e-08,-5.523006530088167e-06
329,1595636620.724247,0.013105797052383423,Acceleration,0.0381927490234375,-0.0637969970703125,-1.006256103515625,3.870797157287664e-05,0.3960364786783854,1.4706375269791907e-05,-0.0006972091278461932,-2.7272178078962143e-08,-5.550278708167129e-06
330,1595636620.7641811,0.013145731210708618,Acceleration,0.0382080078125,-0.063720703125,-1.004653930664062,3.993415832519512e-05,0.4274290974934896,1.6442202347097837e-05,-0.0006807669254990954,-2.7514156941309135e-08,-5.577792865108438e-06
331,1595636620.804157,0.013185707092285157,Acceleration,0.037841796875,-0.063201904296875,-1.002700805664062,3.9975881576538586e-05,0.4563992309570313,1.7665908296064034e-05,-0.0006631010172030314,-2.686115286598338e-08,-5.604654017974421e-06
332,1595636620.843959,0.013225509166717529,Acceleration,0.039306640625,-0.065521240234375,-1.004425048828125,3.9802074432371964e-05,0.4853893025716146,1.87425686555308e-05,-0.0006443584485475005,-2.6019799486555977e-08,-5.630673817460977e-06
333,1595636620.883796,0.013265346050262451,Acceleration,0.0390167236328125,-0.066864013671875,-1.002899169921875,3.983688354492268e-05,0.5149675496419271,1.9925549712498147e-05,-0.0006244328988350024,-2.5272346574241153e-08,-5.655946164035218e-06
334,1595636620.9266179,0.013308167934417725,Acceleration,0.0390472412109375,-0.0674591064453125,-1.003158569335938,4.282188415527348e-05,0.5432099405924481,2.2656576951267226e-05,-0.0006017763218837351,-2.625429459987297e-08,-5.68220045863509e-06
335,1595636620.963649,0.01334519910812378,Acceleration,0.039306640625,-0.07098388671875,-1.001419067382812,3.703117370605462e-05,0.5717613728841147,2.0644348193309235e-05,-0.0005811319736904258,-2.1902241285869878e-08,-5.70410269992096e-06
336,1595636621.003669,0.013385219097137451,Acceleration,0.040069580078125,-0.07470703125,-1.004226684570312,4.001998901367182e-05,0.5976510620117188,2.3399936398491232e-05,-0.0005577320372919346,-2.2788662603790143e-08,-5.7268913625247504e-06
337,1595636621.047055,0.01342860507965088,Acceleration,0.039398193359375,-0.0770263671875,-1.00494384765625,4.3385982513428206e-05,0.6206297810872398,2.6428155677567996e-05,-0.0005313038816143667,-2.3624446667082002e-08,-5.750515809191832e-06
338,1595636621.0834868,0.013465036869049072,Acceleration,0.037689208984375,-0.07867431640625,-1.005416870117188,3.643178939819261e-05,0.641664530436198,2.299382025797921e-05,-0.0005083100613563875,-1.893749811286757e-08,-5.7694533073046995e-06
339,1595636621.1232789,0.013504828929901123,Acceleration,0.0377349853515625,-0.0806121826171875,-1.007720947265625,3.979206085205113e-05,0.6606157430013021,2.5910207943525393e-05,-0.00048239985341286213,-1.9711194607614187e-08,-5.789164501912314e-06
340,1595636621.166642,0.013548192024230956,Acceleration,0.0372467041015625,-0.082733154296875,-1.0067138671875,4.336309432983326e-05,0.6771943155924479,2.9005791883100272e-05,-0.00045339406152976184,-2.0289459903470483e-08,-5.809453961815784e-06
341,1595636621.203265,0.01358481502532959,Acceleration,0.0363311767578125,-0.0849456787109375,-1.009078979492188,3.6623001098632854e-05,0.694839579264323,2.5123999419350518e-05,-0.00042827006211041134,-1.6144593084349618e-08,-5.825598554900134e-06
342,1595636621.243161,0.013624711036682129,Acceleration,0.0356903076171875,-0.0893402099609375,-1.007003784179688,3.989601135253977e-05,0.7140599568684897,2.8104735944071357e-05,-0.00040016532616634,-1.652563382776748e-08,-5.842124188727901e-06
343,1595636621.284383,0.013665933132171631,Acceleration,0.0355682373046875,-0.09185791015625,-1.00811767578125,4.12220954895022e-05,0.734317118326823,2.9852569049253544e-05,-0.00037031275711708645,-1.5880360560839016e-08,-5.85800454928874e-06
344,1595636621.322905,0.013704455137252807,Acceleration,0.0365753173828125,-0.0943756103515625,-1.004653930664062,3.852200508117597e-05,0.754295145670573,2.8672164598804275e-05,-0.00034164059251828215,-1.371293527610696e-08,-5.871717484564847e-06
345,1595636621.363048,0.013744598150253296,Acceleration,0.0359954833984375,-0.0979461669921875,-1.0048828125,4.0143013000489e-05,0.7766557820638021,3.072849149757586e-05,-0.0003109121010207063,-1.3097715630119864e-08,-5.884815200194967e-06
346,1595636621.405629,0.013787178993225098,Acceleration,0.037139892578125,-0.1008148193359375,-1.002166748046875,4.258084297180213e-05,0.8012295532226563,3.359384384467102e-05,-0.00027731825717603527,-1.2523672256811186e-08,-5.8973388724517776e-06
347,1595636621.442738,0.013824288129806519,Acceleration,0.0371551513671875,-0.1038665771484375,-1.000656127929688,3.710913658142023e-05,0.8262818400065105,3.019777128957934e-05,-0.00024712048588645594,-9.730734472447169e-09,-5.9070696069242246e-06
348,1595636621.48255,0.013864099979400635,Acceleration,0.0377349853515625,-0.1050872802734375,-1.001876831054688,3.981184959411625e-05,0.851254374186198,3.339290972406165e-05,-0.0002137275761623943,-9.17360686601439e-09,-5.916243213790239e-06
349,1595636621.527942,0.013909492015838623,Acceleration,0.037261962890625,-0.1051025390625,-1.001007080078125,4.5392036437988045e-05,0.8758480834960938,3.919834884562665e-05,-0.00017452922731676766,-8.811883485411441e-09,-5.92505509727565e-06
350,1595636621.5624368,0.013943986892700195,Acceleration,0.039459228515625,-0.1009368896484375,-1.003646850585938,3.449487686157243e-05,0.8954173787434897,3.0549792004555304e-05,-0.00014397943531221235,-5.4934585483653916e-09,-5.930548555824016e-06
351,1595636621.602268,0.013983818054199218,Acceleration,0.0389862060546875,-0.0972747802734375,-1.005096435546875,3.983116149902308e-05,0.9101616414388022,3.595915477606436e-05,-0.000108020280536148,-5.018720689831983e-09,-5.935567276513848e-06
352,1595636621.647124,0.014028674125671386,Acceleration,0.0386199951171875,-0.093994140625,-1.005752563476562,4.485607147216783e-05,0.9212472534179689,4.107490414122961e-05,-6.694537639491838e-05,-3.924136006237355e-09,-5.939491412520085e-06
353,1595636621.682213,0.01406376314163208,Acceleration,0.0385894775390625,-0.0921630859375,-1.0062255859375,3.508901596069314e-05,0.9300599161783855,3.248027341105606e-05,-3.4465102983862326e-05,-1.7791969647517892e-09,-5.941270609484837e-06
354,1595636621.72214,0.014103690147399902,Acceleration,0.0385894775390625,-0.093048095703125,-1.00823974609375,3.992700576782235e-05,0.9381847127278646,3.729670703702148e-05,2.831604053159157e-06,-6.315154471312938e-10,-5.941902124931969e-06
355,1595636621.765262,0.014146811962127685,Acceleration,0.0372161865234375,-0.0924224853515625,-1.00946044921875,4.312181472778363e-05,0.9445150756835939,4.059271573195818e-05,4.3424319785117335e-05,9.973196889083146e-10,-5.94090480524306e-06
356,1595636621.802023,0.014183573007583617,Acceleration,0.0376739501953125,-0.0930328369140625,-1.010406494140625,3.676104545593216e-05,0.9497986857096355,3.481847714518717e-05,7.82427969303045e-05,2.2363052040339128e-09,-5.938668500039026e-06
357,1595636621.841814,0.014223364114761352,Acceleration,0.036865234375,-0.0945587158203125,-1.006011962890625,3.979110717773453e-05,0.9532081095377606,3.786137367482312e-05,0.00011610417060512763,3.866640507435036e-09,-5.9348018595315915e-06
358,1595636621.885412,0.014266962051391602,Acceleration,0.03643798828125,-0.0948486328125,-1.003143310546875,4.3597936630250175e-05,0.9551620483398439,4.160050060510416e-05,0.00015770467121023178,5.968750267134117e-09,-5.928833109264458e-06
359,1595636621.9217222,0.014303272247314452,Acceleration,0.0362091064453125,-0.095367431640625,-1.003616333007812,3.631019592285033e-05,0.955810038248698,3.469388543356403e-05,0.00019239855664379582,6.356158398301026e-09,-5.9224769508661565e-06
360,1595636621.961551,0.014343101024627686,Acceleration,0.0379638671875,-0.0965423583984375,-1.003189086914062,3.982877731323331e-05,0.9548928833007814,3.8050480587069255e-05,0.00023044903723086507,8.420751326935193e-09,-5.914056199539221e-06
361,1595636622.006431,0.014387981176376343,Acceleration,0.0373992919921875,-0.0975341796875,-1.003082275390625,4.488015174865766e-05,0.9527495320638022,4.280764054186917e-05,0.00027325667777273425,1.1303194463013821e-08,-5.902753005076207e-06
362,1595636622.041739,0.014423289060592651,Acceleration,0.0394134521484375,-0.0993804931640625,-1.004669189453125,3.530788421630786e-05,0.9498186238606772,3.3587828081507935e-05,0.0003068445058542422,1.0241072712622214e-08,-5.892511932363584e-06
363,1595636622.0812302,0.014462780237197876,Acceleration,0.0392608642578125,-0.0983428955078125,-1.002395629882812,3.9491176605224373e-05,0.9454122924804688,3.742244941245471e-05,0.0003442669552666969,1.2856578850406344e-08,-5.879655353513178e-06
364,1595636622.126936,0.014508486032485961,Acceleration,0.0394134521484375,-0.0980072021484375,-1.001815795898438,4.570579528808544e-05,0.9407766723632812,4.310488335089711e-05,0.000387371838617594,1.672006646904857e-08,-5.86293528704413e-06
365,1595636622.161133,0.014542683124542237,Acceleration,0.0404815673828125,-0.0994415283203125,-1.009140014648438,3.4197092056275497e-05,0.9397997029622397,3.215512171293187e-05,0.00041952696033052586,1.3796796253863494e-08,-5.849138490790266e-06
366,1595636622.20104,0.014582590103149414,Acceleration,0.03985595703125,-0.096710205078125,-1.00555419921875,3.990697860717721e-05,0.9394308471679688,3.749720668100004e-05,0.0004570241670115259,1.7490253543468162e-08,-5.831648237246797e-06
367,1595636622.242486,0.014624036073684692,Acceleration,0.0417327880859375,-0.097442626953125,-1.006134033203125,4.144597053527821e-05,0.9416838582356771,3.898231232681903e-05,0.000496006479338345,1.9749640043916947e-08,-5.811898597202881e-06
368,1595636622.282526,0.014664076089859009,Acceleration,0.040740966796875,-0.0975189208984375,-1.0108642578125,4.004001617431696e-05,0.9451830037434896,3.777508983621426e-05,0.0005337815691745593,2.0616365059287493e-08,-5.791282232143593e-06
369,1595636622.320737,0.014702286958694457,Acceleration,0.0403289794921875,-0.0977783203125,-1.013839721679688,3.821086883544836e-05,0.9482734171549481,3.6175307472293853e-05,0.0005699568766468531,2.1087402490961804e-08,-5.770194829652631e-06
370,1595636622.362814,0.014744364023208618,Acceleration,0.0391387939453125,-0.094879150390625,-1.00579833984375,4.2077064514161114e-05,0.9498784383138021,3.993432904011661e-05,0.0006098912056869697,2.4822271938634765e-08,-5.745372557713997e-06
371,1595636622.400608,0.014782158136367797,Acceleration,0.0398101806640625,-0.0948638916015625,-1.00750732421875,3.7794113159178924e-05,0.9510747273763022,3.59224195271956e-05,0.0006458136252141653,2.3729125236802566e-08,-5.721643432477194e-06
372,1595636622.440583,0.01482213306427002,Acceleration,0.037750244140625,-0.0957794189453125,-1.001968383789062,3.9974927902221985e-05,0.9518722534179688,3.8035084179500993e-05,0.0006838487093936663,2.6576577980124115e-08,-5.6950668544970704e-06
373,1595636622.48452,0.014866070032119752,Acceleration,0.038330078125,-0.0963592529296875,-1.003494262695312,4.393696784973228e-05,0.9528591918945314,4.184406213753471e-05,0.000725692771531201,3.096548936512996e-08,-5.66410136513194e-06
374,1595636622.520364,0.01490191411972046,Acceleration,0.038665771484375,-0.0952301025390625,-1.000152587890625,3.584408760070809e-05,0.9527694702148438,3.4152760349534305e-05,0.0007598455318807353,2.662388254085236e-08,-5.637477482591088e-06
375,1595636622.5603518,0.014941901922225952,Acceleration,0.040069580078125,-0.0970001220703125,-1.005569458007812,3.998780250549262e-05,0.9530685424804688,3.810513702956035e-05,0.0007979506689102956,3.1146423410519235e-08,-5.606331059180568e-06
376,1595636622.603112,0.014984662055969239,Acceleration,0.03814697265625,-0.0975799560546875,-1.00048828125,4.2760133743286605e-05,0.9530984497070314,4.075397776148793e-05,0.0008387046466717835,3.499180009297532e-08,-5.571339259087593e-06
377,1595636622.6401381,0.015021688222885132,Acceleration,0.0391998291015625,-0.0973358154296875,-1.002700805664062,3.702616691589333e-05,0.9517625935872396,3.52648514702982e-05,0.0008739694981420817,3.1706879379206524e-08,-5.5396323797083865e-06
378,1595636622.6799982,0.015061548233032226,Acceleration,0.0379180908203125,-0.096588134765625,-1.006088256835938,3.986001014709417e-05,0.9506161499023439,3.791441800955553e-05,0.0009118839161516372,3.5592067607485204e-08,-5.504040312100901e-06
379,1595636622.721898,0.015103448152542115,Acceleration,0.0387115478515625,-0.0965576171875,-1.00732421875,4.1899919509888126e-05,0.9496690877278645,3.981089925126718e-05,0.0009516948154029044,3.904189942623735e-08,-5.464998412674663e-06
380,1595636622.760266,0.01514181613922119,Acceleration,0.0378265380859375,-0.09503173828125,-1.009857177734375,3.8367986679076205e-05,0.9467880249023438,3.6381620617417574e-05,0.000988076436020322,3.721255876753066e-08,-5.427785853907133e-06
381,1595636622.8000891,0.015181639194488526,Acceleration,0.0373077392578125,-0.0955657958984375,-1.009414672851562,3.982305526733544e-05,0.9460403442382813,3.7689104377933764e-05,0.0010257655403982558,4.009867016329853e-08,-5.387687183743834e-06
382,1595636622.840523,0.015222073078155518,Acceleration,0.0365447998046875,-0.0935821533203125,-1.01171875,4.043388366699145e-05,0.9435181681315105,3.8201094535566796e-05,0.0010639666349338225,4.224799383627312e-08,-5.3454391899075605e-06
383,1595636622.87954,0.015261090040206909,Acceleration,0.0349578857421875,-0.0943450927734375,-1.008163452148438,3.901696205139103e-05,0.9414446004231771,3.677276040449161e-05,0.001100739395338314,4.223012651777264e-08,-5.3032090633897875e-06
384,1595636622.919319,0.01530086898803711,Acceleration,0.0347137451171875,-0.0949249267578125,-1.009963989257812,3.977894783020047e-05,0.9395803833007813,3.7412597347429517e-05,0.0011381519926857435,4.4530371860847054e-08,-5.258678691528941e-06
385,1595636622.963923,0.015345473051071166,Acceleration,0.03662109375,-0.0962371826171875,-1.00018310546875,4.460406303405731e-05,0.9404676310221355,4.1928890068956834e-05,0.0011800808827547003,5.1701302651884746e-08,-5.206977388877056e-06
386,1595636622.9994118,0.015380961894989014,Acceleration,0.0346221923828125,-0.09686279296875,-1.001205444335938,3.548884391784725e-05,0.9417735799153646,3.339928227535037e-05,0.0012134801650300507,4.247235721633597e-08,-5.16450503166072e-06
387,1595636623.039206,0.015420756101608276,Acceleration,0.037139892578125,-0.096435546875,-0.997222900390625,3.979420661926261e-05,0.9422022501627606,3.748566172391285e-05,0.0012509658267539636,4.9035336499533316e-08,-5.115469695161186e-06
388,1595636623.085486,0.015467036008834839,Acceleration,0.0376739501953125,-0.09716796875,-0.9995574951171876,4.6279907226562736e-05,0.9427306111653647,4.361725897528254e-05,0.0012945830857292462,5.8903883755200304e-08,-5.056565811405986e-06
389,1595636623.11899,0.015500540018081665,Acceleration,0.0401611328125,-0.09918212890625,-0.998291015625,3.35040092468257e-05,0.9453126017252604,3.1628508631547006e-05,0.001326211594360793,4.3903564597884136e-08,-5.0126622468081016e-06
390,1595636623.1589699,0.015540519952774048,Acceleration,0.04071044921875,-0.100555419921875,-0.9969024658203124,3.997993469238327e-05,0.9476353963216146,3.783996866899586e-05,0.001364051563029789,5.377827266890015e-08,-4.958883974139201e-06
391,1595636623.203929,0.015585479021072388,Acceleration,0.04229736328125,-0.0991973876953125,-0.9994659423828124,4.495906829833987e-05,0.948692118326823,4.2628559123550104e-05,0.001406680122153339,6.228475753526129e-08,-4.89659921660394e-06
392,1595636623.238847,0.015620397090911866,Acceleration,0.0435791015625,-0.0984039306640625,-1.002944946289062,3.491806983947805e-05,0.9493899536132813,3.3138681174532883e-05,0.001439818803327872,4.969712413897608e-08,-4.846902092464964e-06
393,1595636623.2787302,0.01566028022766113,Acceleration,0.04559326171875,-0.1008758544921875,-1.010086059570312,3.988313674926566e-05,0.9521912638346355,3.792051186765517e-05,0.001477739315195527,5.8180684707499485e-08,-4.788721407757464e-06
394,1595636623.3197029,0.015701252937316893,Acceleration,0.04547119140625,-0.096923828125,-1.009414672851562,4.097270965576147e-05,0.9524305216471355,3.90187577102913e-05,0.0015167580729058183,6.134633602380624e-08,-4.727375071733658e-06
395,1595636623.358555,0.015740105152130125,Acceleration,0.045623779296875,-0.094390869140625,-1.009445190429688,3.8852214813232117e-05,0.9520118204752605,3.699590148777711e-05,0.0015537539743935955,5.964809682414697e-08,-4.667726974909511e-06
396,1595636623.401714,0.01578326416015625,Acceleration,0.0462188720703125,-0.0978851318359375,-1.017471313476562,4.315900802612585e-05,0.9535271199544272,4.112058521205012e-05,0.0015948745596056457,6.794584208508106e-08,-4.59978113282443e-06
397,1595636623.441317,0.01582286715507507,Acceleration,0.0481109619140625,-0.0972137451171875,-1.004013061523438,3.960299491882063e-05,0.9558997599283855,3.7809511510929286e-05,0.001632684071116575,6.391049402634389e-08,-4.535870638798086e-06
398,1595636623.4782321,0.015859782218933107,Acceleration,0.046478271484375,-0.0948028564453125,-1.008209228515625,3.691506385803539e-05,0.9561988321940106,3.529262081552891e-05,0.001667976691932104,6.09220514208269e-08,-4.474948587377259e-06
399,1595636623.518448,0.0158999981880188,Acceleration,0.046630859375,-0.0928802490234375,-1.0052490234375,4.021596908569333e-05,0.9548629760742188,3.842760130108215e-05,0.0017064042932331861,6.785200069137936e-08,-4.40709658668588e-06
400,1595636623.5626302,0.015944180250167847,Acceleration,0.04608154296875,-0.09576416015625,-1.004287719726562,4.4182062149046575e-05,0.9545539347330729,4.2180988310864136e-05,0.0017485852815440502,7.632428205855793e-08,-4.3307723046273215e-06
401,1595636623.599684,0.015981234073638915,Acceleration,0.0480804443359375,-0.097991943359375,-1.001678466796875,3.705382347106781e-05,0.9552916463216146,3.538354050869966e-05,0.0017839688220527498,6.544731807833601e-08,-4.265324986548985e-06
402,1595636623.638051,0.016019601106643678,Acceleration,0.045806884765625,-0.097991943359375,-0.996490478515625,3.8367033004763074e-05,0.9563084920247397,3.6671212799922115e-05,0.0018206400348526719,6.91490734910758e-08,-4.196175913057909e-06
403,1595636623.680859,0.01606240916252136,Acceleration,0.04541015625,-0.0966644287109375,-0.996490478515625,4.280805587768277e-05,0.9559795125325522,4.093066587665552e-05,0.0018615707007293273,7.88141414610988e-08,-4.11736177159681e-06
404,1595636623.717966,0.01609951615333557,Acceleration,0.044189453125,-0.10009765625,-0.995513916015625,3.710699081421048e-05,0.9565776570638022,3.548462066193216e-05,0.0018970553213912594,6.973565063844055e-08,-4.047626120958369e-06
405,1595636623.757765,0.016139315128326417,Acceleration,0.043212890625,-0.1013641357421875,-0.9999847412109376,3.9798974990845615e-05,0.9571060180664063,3.808132436344834e-05,0.0019351366457547078,7.62586561302809e-08,-3.9713674648280886e-06
406,1595636623.801219,0.016182769060134886,Acceleration,0.04449462890625,-0.09808349609375,-1.003616333007812,4.3453931808469515e-05,0.9563782755533856,4.157420800576595e-05,0.001976710853760474,8.499257724453234e-08,-3.886374887583556e-06
407,1595636623.8375618,0.016219111919403076,Acceleration,0.0419769287109375,-0.0984649658203125,-1.003814697265625,3.634285926818956e-05,0.9564181518554689,3.475824568500788e-05,0.0020114690994454815,7.247093138778942e-08,-3.813903956195767e-06
408,1595636623.8773608,0.01625891089439392,Acceleration,0.0404205322265625,-0.0974884033203125,-1.010147094726562,3.9798974990845615e-05,0.9542050170898438,3.802042185889235e-05,0.0020494895213043736,8.081099529304119e-08,-3.733092960902726e-06
409,1595636623.921888,0.016303438186645508,Acceleration,0.0394134521484375,-0.0954742431640625,-1.008193969726562,4.452729225158658e-05,0.9532579549153647,4.246708060677792e-05,0.0020919566019111514,9.220369093630896e-08,-3.640889269966417e-06
410,1595636623.957443,0.016338993072509765,Acceleration,0.037811279296875,-0.0966644287109375,-1.003921508789062,3.555488586425709e-05,0.9547433471679688,3.391938426221342e-05,0.002125875986173365,7.498227813194454e-08,-3.5659069918344724e-06
411,1595636623.997291,0.016378841161727907,Acceleration,0.0373992919921875,-0.095977783203125,-1.008682250976562,3.984808921814187e-05,0.9534972127278647,3.801987004020308e-05,0.002163895856213568,8.546960555045365e-08,-3.4804373862840187e-06
412,1595636624.043369,0.01642491912841797,Acceleration,0.037841796875,-0.0975494384765625,-1.00018310546875,4.607796669006334e-05,0.953716532389323,4.394026570917036e-05,0.0022078361219227383,1.0072026023322472e-07,-3.379717126050794e-06
413,1595636624.0770528,0.01645860290527344,Acceleration,0.03472900390625,-0.0964508056640625,-1.001327514648438,3.368377685546847e-05,0.9547931925455729,3.2142907850599274e-05,0.0022399790297733375,7.490960653205113e-08,-3.304807519518743e-06
414,1595636624.1175358,0.016499085903167725,Acceleration,0.037994384765625,-0.0989227294921875,-0.99920654296875,4.048299789428597e-05,0.9587409464518231,3.8732799259837955e-05,0.0022787118290331755,9.146507626099666e-08,-3.2133424432577463e-06
415,1595636624.162842,0.016544392108917238,Acceleration,0.03558349609375,-0.09967041015625,-0.9962921142578124,4.530620574951308e-05,0.9612930297851564,4.349472718672415e-05,0.0023222065562199,1.0422507749949665e-07,-3.1091173657582497e-06
416,1595636624.1968448,0.01657839488983154,Acceleration,0.039093017578125,-0.1019134521484375,-0.9956207275390624,3.40027809143037e-05,0.9638550821940105,3.273019473960651e-05,0.002354936750959506,7.95179395894116e-08,-3.0295994261688382e-06
417,1595636624.2366788,0.016618228912353514,Acceleration,0.03912353515625,-0.0999603271484375,-1.003631591796875,3.983402252197288e-05,0.965141092936198,3.8419838542468134e-05,0.0023933565895019743,9.457181193243823e-08,-2.9350276142364e-06
418,1595636624.284812,0.016666362047195436,Acceleration,0.04058837890625,-0.1000518798828125,-0.99658203125,4.8133134841921166e-05,0.967354227701823,4.650852892482577e-05,0.0024398651184268,1.163190560943181e-07,-2.818708558142082e-06
419,1595636624.318106,0.01669965600967407,Acceleration,0.0425872802734375,-0.0998077392578125,-1.002365112304688,3.32939624786352e-05,0.9671648152669271,3.220390221540342e-05,0.002472069020642203,8.176887546184533e-08,-2.7369396826802367e-06
420,1595636624.3564029,0.016737952947616576,Acceleration,0.0433807373046875,-0.099884033203125,-1.002487182617188,3.829693794250508e-05,0.9661978149414062,3.702093433472347e-05,0.0025090899549769265,9.5381568085519e-08,-2.6415581145947176e-06
421,1595636624.40228,0.016783830165863038,Acceleration,0.04449462890625,-0.096588134765625,-1.011016845703125,4.587721824646229e-05,0.9652208455403646,4.430405770610603e-05,0.0025533940126830326,1.1612634092677614e-07,-2.5254317736679413e-06
422,1595636624.4362712,0.016817821264266966,Acceleration,0.04498291015625,-0.09600830078125,-1.01220703125,3.3991098403927944e-05,0.9636158243815105,3.278163852620957e-05,0.0025861756512092424,8.734980909960258e-08,-2.4380819645683386e-06
423,1595636624.476135,0.016857685089111327,Acceleration,0.042449951171875,-0.0973663330078125,-1.006576538085938,3.9863824844360574e-05,0.9635360717773439,3.841182281847696e-05,0.0026245874740277193,1.0386047426494957e-07,-2.334221490303389e-06
424,1595636624.52451,0.016906059980392456,Acceleration,0.0426177978515625,-0.0950775146484375,-1.006744384765625,4.8374891281129095e-05,0.9632768758138022,4.660468342939679e-05,0.002671192157457116,1.280913819609484e-07,-2.2061301083424405e-06
425,1595636624.555944,0.01693749403953552,Acceleration,0.0417327880859375,-0.0958251953125,-1.006515502929688,3.143405914306577e-05,0.9627285766601563,3.0271084651466777e-05,0.002701463242108583,8.444218379262991e-08,-2.1216879245498105e-06
426,1595636624.595943,0.016977493047714235,Acceleration,0.0419158935546875,-0.094451904296875,-1.00909423828125,3.9999008178713547e-05,0.961731669108073,3.848825055504624e-05,0.002739951492663629,1.0882559623996306e-07,-2.0128623283098476e-06
427,1595636624.641421,0.017022971153259278,Acceleration,0.0390472412109375,-0.095794677734375,-1.004684448242188,4.547810554504303e-05,0.9605852254231771,4.371166531025577e-05,0.002783663157973885,1.2560176503591942e-07,-1.8872605632739282e-06
428,1595636624.675853,0.017057403087615965,Acceleration,0.038604736328125,-0.097412109375,-1.001617431640625,3.4431934356687205e-05,0.9612132771809897,3.308561994422322e-05,0.002816748777918108,9.64165080735203e-08,-1.790844055200408e-06
429,1595636624.718876,0.01710042595863342,Acceleration,0.0395050048828125,-0.0973663330078125,-1.006759643554688,4.302287101745628e-05,0.9601964314778647,4.133228103365907e-05,0.0028580810589517672,1.2207373605883253e-07,-1.6687703191415754e-06
430,1595636624.7641811,0.017145731210708618,Acceleration,0.040802001953125,-0.0977783203125,-0.998016357421875,4.530525207519648e-05,0.9589602661132813,4.3473938978084246e-05,0.0029015549979298514,1.304708817092062e-07,-1.5382994374323692e-06
431,1595636624.795552,0.017177102088928222,Acceleration,0.040130615234375,-0.09747314453125,-1.00531005859375,3.137087821960399e-05,0.9560592651367189,3.003792225150344e-05,0.002931592920181355,9.149548648800161e-08,-1.4468039509443676e-06
432,1595636624.83545,0.017217000007629393,Acceleration,0.0433502197265625,-0.0987091064453125,-1.00457763671875,3.989791870117124e-05,0.9552418009440106,3.812846727397543e-05,0.0029697213874553302,1.1772507923807354e-07,-1.329078871706294e-06
433,1595636624.8844368,0.017265986919403075,Acceleration,0.0409393310546875,-0.09759521484375,-1.008514404296875,4.8986911773681724e-05,0.9536367797851563,4.675503331042524e-05,0.0030164764207657553,1.4662267194556662e-07,-1.1824561997607274e-06
434,1595636624.918668,0.01730021810531616,Acceleration,0.0456085205078125,-0.0985260009765625,-1.006072998046875,3.423118591308616e-05,0.9527993774414063,3.262978526472601e-05,0.003049106206030481,1.0381604328452373e-07,-1.0786401564762037e-06
435,1595636624.955107,0.01733665704727173,Acceleration,0.044464111328125,-0.097412109375,-1.013671875,3.643894195556885e-05,0.9511843872070312,3.468957694218494e-05,0.003083795782972666,1.1173822979823922e-07,-9.669019266779645e-07
436,1595636625.003772,0.017385322093963623,Acceleration,0.046844482421875,-0.096893310546875,-1.012344360351562,4.866504669189323e-05,0.9513837687174481,4.629428407128699e-05,0.003130090067043953,1.5119952251457671e-07,-8.157024041633878e-07
437,1595636625.0352669,0.01741681694984436,Acceleration,0.04498291015625,-0.095367431640625,-1.015838623046875,3.1494855880737777e-05,0.9509650675455731,2.995710121649654e-05,0.00316004716826045,9.905348284798727e-08,-7.166489213154005e-07
438,1595636625.0748222,0.017456372261047362,Acceleration,0.0461273193359375,-0.0947723388671875,-1.017227172851562,3.9555311203001015e-05,0.9492703247070313,3.7582201149754236e-05,0.0031976293694102043,1.2573993698779036e-07,-5.909089843276101e-07
439,1595636625.1216269,0.01750317692756653,Acceleration,0.0440826416015625,-0.0950775146484375,-1.014450073242188,4.680466651916723e-05,0.9492703247070314,4.4430280984454196e-05,0.0032420596503946585,1.5070374852955476e-07,-4.4020523579805535e-07
440,1595636625.154737,0.01753628706932068,Acceleration,0.045501708984375,-0.095794677734375,-1.011856079101562,3.3110141754149475e-05,0.9492503865559898,3.143014493655366e-05,0.003273489795331212,1.078653828770768e-07,-3.3233985292097857e-07
441,1595636625.1946108,0.017576160907745362,Acceleration,0.0443878173828125,-0.094635009765625,-1.010177612304688,3.9873838424683145e-05,0.9493700154622396,3.785264156994092e-05,0.003311342436901153,1.312812682408395e-07,-2.0105858468013908e-07
442,1595636625.2431722,0.017624722242355347,Acceleration,0.045440673828125,-0.09600830078125,-1.011947631835938,4.85613346099846e-05,0.9495095825195314,4.6106063770832916e-05,0.003357448500671986,1.6192269408176106e-07,-3.913589059837802e-08
443,1595636625.2745311,0.017656081199645995,Acceleration,0.04632568359375,-0.0941162109375,-1.01116943359375,3.135895729064822e-05,0.9473562622070313,2.974186750543482e-05,0.003387190368177421,1.0575242111454723e-07,6.661653051616921e-08
444,1595636625.314538,0.017696088075637818,Acceleration,0.0471649169921875,-0.0981597900390625,-1.00885009765625,4.00068759918229e-05,0.9478746541341148,3.7911134122964556e-05,0.0034251015023003856,1.3626925804115442e-07,2.0288578855732362e-07
445,1595636625.364356,0.01774590611457825,Acceleration,0.045684814453125,-0.0951690673828125,-1.006591796875,4.9818038940430825e-05,0.9461699422200521,4.717879372804224e-05,0.003472280296028428,1.7180701750808181e-07,3.7469280606540544e-07
446,1595636625.394283,0.017775833129882814,Acceleration,0.0491180419921875,-0.0975341796875,-1.005813598632812,2.992701530456568e-05,0.9462098185221356,2.8316639030890894e-05,0.0035005969350593185,1.0433870180581028e-07,4.790315078712158e-07
447,1595636625.434361,0.017815911054611205,Acceleration,0.049285888671875,-0.097259521484375,-1.008773803710938,4.007792472839056e-05,0.9452627563476563,3.79031477407233e-05,0.003538500082800042,1.4105620021880296e-07,6.200877080900187e-07
448,1595636625.483823,0.017865373134613036,Acceleration,0.049652099609375,-0.0988616943359375,-1.009857177734375,4.9462080001831665e-05,0.9460901896158854,4.677512536247435e-05,0.0035852752081625165,1.7617837167833085e-07,7.962660797683496e-07
449,1595636625.514065,0.017895615100860594,Acceleration,0.0481109619140625,-0.0951080322265625,-1.009231567382812,3.0241966247557955e-05,0.9438571166992187,2.857786132362223e-05,0.003613853069486139,1.0885789719224533e-07,9.051239769605949e-07
450,1595636625.553832,0.017935382127761842,Acceleration,0.0467987060546875,-0.0950469970703125,-1.001617431640625,3.976702690124817e-05,0.9423119099934897,3.7503667212395003e-05,0.003651356736698534,1.4445789690287894e-07,1.049581873863474e-06
451,1595636625.6014981,0.0179830482006073,Acceleration,0.0460205078125,-0.0944976806640625,-1.011154174804688,4.7666072845457125e-05,0.9407467651367188,4.487900599051325e-05,0.003696235742689047,1.7511543918061069e-07,1.2246973130440847e-06
452,1595636625.635686,0.01801723599433899,Acceleration,0.04736328125,-0.094024658203125,-1.013168334960938,3.418779373168951e-05,0.9398694864908855,3.2147060249553816e-05,0.0037283828029386007,1.269156636871973e-07,1.351612976731282e-06
453,1595636625.673568,0.018055118083953856,Acceleration,0.04669189453125,-0.092926025390625,-1.0069580078125,3.788208961486711e-05,0.9386632283528646,3.5581372324085276e-05,0.003763964175262686,1.4191287982694997e-07,1.493525856558232e-06
454,1595636625.723684,0.018105234146118164,Acceleration,0.0451202392578125,-0.093292236328125,-1.004501342773438,5.011606216430778e-05,0.9374968465169271,4.701287747118341e-05,0.0038109770527338695,1.8981311273662664e-07,1.6833389692948586e-06
455,1595636625.753586,0.018135136127471925,Acceleration,0.0460357666015625,-0.09625244140625,-1.000320434570312,2.9901981353760987e-05,0.9377959187825521,2.8037484650413954e-05,0.0038390145373842833,1.1437495294207068e-07,1.7977139222369292e-06
456,1595636625.793676,0.01817522597312927,Acceleration,0.0480499267578125,-0.0983734130859375,-0.99908447265625,4.008984565734633e-05,0.9402383422851563,3.7645051832706445e-05,0.0038766595892169896,1.5466009243891275e-07,1.9523740146758418e-06
457,1595636625.841824,0.018223374128341675,Acceleration,0.046722412109375,-0.0988922119140625,-1.00054931640625,4.814815521240329e-05,0.9421224975585938,4.531610094127334e-05,0.003921975690158263,1.8774495093814187e-07,2.140118965613984e-06
458,1595636625.8732471,0.0182547972202301,Acceleration,0.04833984375,-0.1017303466796875,-0.9940948486328124,3.1423091888426596e-05,0.9470970662434898,2.968255997538304e-05,0.003951658250133647,1.2370696140081353e-07,2.263825927014797e-06
459,1595636625.9134212,0.018294971227645875,Acceleration,0.04888916015625,-0.102020263671875,-0.9922637939453124,4.0174007415773316e-05,0.9496192423502605,3.809934752353176e-05,0.003989757597657178,1.5951924958044414e-07,2.4233451765952415e-06
460,1595636625.963813,0.0183453631401062,Acceleration,0.049530029296875,-0.1014862060546875,-0.9930572509765624,5.039191246032637e-05,0.9537464396158855,4.7957118412813716e-05,0.004037714716069992,2.0225984105551657e-07,2.6256050176507583e-06
461,1595636625.993037,0.018374587059020998,Acceleration,0.049957275390625,-0.098785400390625,-1.001129150390625,2.922391891479678e-05,0.9545639038085938,2.7884153370252492e-05,0.004065598869440245,1.1840528958206117e-07,2.7440103072328194e-06
462,1595636626.036339,0.01841788911819458,Acceleration,0.0503082275390625,-0.0981597900390625,-0.999664306640625,4.3302059173581237e-05,0.955152079264323,4.134731725187865e-05,0.004106946186692124,1.7694401480970132e-07,2.920954322042521e-06
463,1595636626.085398,0.018466948032379152,Acceleration,0.047821044921875,-0.0967559814453125,-0.9975433349609376,4.905891418457292e-05,0.9537763468424479,4.682497792043196e-05,0.004153771164612556,2.0263091182033442e-07,3.1235852338628553e-06
464,1595636626.112735,0.018494285106658934,Acceleration,0.047698974609375,-0.097747802734375,-1.001800537109375,2.733707427978252e-05,0.9555009969075522,2.6097028283399807e-05,0.004179868192895956,1.1390865906856464e-07,3.23749389293142e-06
465,1595636626.152584,0.018534134149551393,Acceleration,0.0448455810546875,-0.095733642578125,-1.004898071289062,3.984904289245847e-05,0.9559496053059898,3.8084738517211506e-05,0.004217952931413168,1.6732256709289404e-07,3.404816460024314e-06
466,1595636626.202643,0.018584192991256715,Acceleration,0.04669189453125,-0.093994140625,-1.002670288085938,5.0058841705322155e-05,0.9556206258138021,4.7845495804115876e-05,0.004265798427217284,2.1234338316449676e-07,3.617159843188811e-06
467,1595636626.2363448,0.018617894887924195,Acceleration,0.044097900390625,-0.09375,-1.009017944335938,3.370189666748041e-05,0.9554411824544271,3.2203203793712066e-05,0.004298001631010995,1.443081523216861e-07,3.761467995510497e-06
468,1595636626.272394,0.01865394401550293,Acceleration,0.0435333251953125,-0.09423828125,-1.005569458007812,3.6049127578735574e-05,0.9562985229492188,3.4458274268715196e-05,0.004332459905279711,1.5556030449255693e-07,3.917028300003054e-06
469,1595636626.320208,0.01870175814628601,Acceleration,0.04058837890625,-0.093505859375,-1.000137329101562,4.7814130783079e-05,0.9564380900065105,4.57279192827244e-05,0.004378187824562435,2.082460248800013e-07,4.125274324883055e-06
470,1595636626.3530538,0.018734603881835937,Acceleration,0.0410919189453125,-0.09478759765625,-0.999542236328125,3.284573554992662e-05,0.9554810587565105,3.13991953765555e-05,0.004409587019938991,1.4432046430739567e-07,4.269594789190451e-06
471,1595636626.392119,0.01877366900444031,Acceleration,0.038238525390625,-0.098663330078125,-1.004592895507812,3.906512260437242e-05,0.9556704711914062,3.732968441647465e-05,0.004446916704355466,1.7299020191782193e-07,4.442584991108274e-06
472,1595636626.445496,0.018827046155929564,Acceleration,0.03900146484375,-0.098480224609375,-1.00482177734375,5.337715148925545e-05,0.9554013061523438,5.100378388305901e-05,0.004497920488238525,2.3872496493790795e-07,4.681309956046182e-06
473,1595636626.471972,0.018853522062301637,Acceleration,0.0420989990234375,-0.096160888671875,-1.002838134765625,2.6475906372072644e-05,0.9517625935872397,2.5246946422851075e-05,0.004523167434661376,1.1942073961046655e-07,4.8007306956566484e-06
474,1595636626.511968,0.018893517971038817,Acceleration,0.04400634765625,-0.09759521484375,-1.001983642578125,3.999590873718026e-05,0.9488715616861979,3.800879510854205e-05,0.0045611762297699185,1.8166829006988787e-07,4.9823989857265365e-06
475,1595636626.560998,0.018942548036575316,Acceleration,0.0450592041015625,-0.0992584228515625,-1.01007080078125,4.903006553649836e-05,0.9474160766601563,4.648755359208672e-05,0.004607663783362005,2.2477441336876333e-07,5.2071733990953e-06
476,1595636626.591746,0.018973296165466308,Acceleration,0.047454833984375,-0.0962371826171875,-1.005416870117188,3.074812889099221e-05,0.9457512410481771,2.9105676348554918e-05,0.00463676945971056,1.421245124410842e-07,5.349297911536384e-06
477,1595636626.631907,0.01901345705986023,Acceleration,0.0481719970703125,-0.0946807861328125,-1.009857177734375,4.0160894393920926e-05,0.9434782918294272,3.7936573877887015e-05,0.004674706033588447,1.869785919689821e-07,5.536276503505366e-06
478,1595636626.6846259,0.01906617593765259,Acceleration,0.046661376953125,-0.0958404541015625,-1.005020141601562,5.271887779235984e-05,0.9428801472981773,4.972335001247742e-05,0.004724429383600924,2.477559357063238e-07,5.78403243921169e-06
479,1595636626.71136,0.019092910051345825,Acceleration,0.0446624755859375,-0.095611572265625,-1.001937866210938,2.673411369323586e-05,0.9414844767252605,2.5188409049077115e-05,0.0047496177926500014,1.2664012717248623e-07,5.910672566384177e-06
480,1595636626.752223,0.0191337730884552,Acceleration,0.0443878173828125,-0.0985565185546875,-0.993072509765625,4.086303710937669e-05,0.9433287556966147,3.850959653034966e-05,0.004788127389180351,1.9487061765245623e-07,6.105543184036633e-06
481,1595636626.803116,0.0191846661567688,Acceleration,0.042755126953125,-0.097076416015625,-1.00225830078125,5.0893068313597606e-05,0.945342508951823,4.8060137846840866e-05,0.0048361875270271915,2.4490545825106345e-07,6.350448642287696e-06
482,1595636626.831348,0.019212898015975952,Acceleration,0.042236328125,-0.0950927734375,-0.9933319091796876,2.823185920715343e-05,0.9462197875976562,2.670116021887235e-05,0.004862888687246064,1.3691147706040664e-07,6.487360119348102e-06
483,1595636626.871209,0.019252758979797363,Acceleration,0.0443267822265625,-0.093658447265625,-1.01318359375,3.986096382141077e-05,0.9458409627278647,3.7709682558318453e-05,0.004900598369804382,1.9459100217595006e-07,6.681951121524052e-06
484,1595636626.918849,0.0193003990650177,Acceleration,0.0462799072265625,-0.0939178466796875,-1.005233764648438,4.764008522033583e-05,0.9461101277669272,4.506635559193959e-05,0.004945664725396322,2.345384064786046e-07,6.916489528002657e-06
485,1595636626.952599,0.01933414912223816,Acceleration,0.0488739013671875,-0.0964202880859375,-1.005325317382812,3.375005722046007e-05,0.9471768188476564,3.194927139149616e-05,0.004977613996787818,1.6745561234414428e-07,7.0839451403468014e-06
486,1595636626.990891,0.019372441053390504,Acceleration,0.0524749755859375,-0.0942840576171875,-1.008285522460938,3.8291931152345526e-05,0.9443156941731771,3.6214450541885384e-05,0.005013828447329703,1.912958130913855e-07,7.275240953438187e-06
487,1595636627.0396712,0.019421221256256102,Acceleration,0.05621337890625,-0.0953521728515625,-1.01800537109375,4.878020286559759e-05,0.9422720336914062,4.601406604449059e-05,0.005059842513374194,2.4569785653220773e-07,7.520938809970395e-06
