loggingTime,loggingSample,identifierForVendor,deviceID,locationTimestamp_since1970,locationLatitude,locationLongitude,locationAltitude,locationSpeed,locationCourse,locationVerticalAccuracy,locationHorizontalAccuracy,locationFloor,accelerometerTimestamp_sinceReboot,accelerometerAccelerationX,accelerometerAccelerationY,accelerometerAccelerationZ,altimeterTimestamp_sinceReboot,altimeterReset,altimeterRelativeAltitude,altimeterPressure
1595636607.61845,1,0,0,1595636606.999924,1.370493736035993,103.8493519705093,12.04454,0,324.36054738165,43.907958984375,32.00483309472351,-9999,294383.73468975,0.039520263671875,0.0050201416015625,-0.9991302490234375,294380.693868,0,11.9882,100.6763
1595636607.631866,2,0,0,1595636606.999924,1.370493736035993,103.8493519705093,12.04454,0,324.36054738165,43.907958984375,32.00483309472351,-9999,294383.77460575,0.0420379638671875,0.0070037841796875,-1.006484985351562,294380.693868,0,11.9882,100.6763
1595636607.671869,3,0,0,1595636606.999924,1.370493736035993,103.8493519705093,12.04454,0,324.36054738165,43.907958984375,32.00483309472351,-9999,294383.81452175,0.040985107421875,0.0069580078125,-1.003921508789062,294380.693868,0,11.9882,100.6763
1595636607.724054,4,0,0,1595636606.999924,1.370493736035993,103.8493519705093,12.04454,0,324.36054738165,43.907958984375,32.00483309472351,-9999,294383.85443675,0.0401458740234375,0.0072021484375,-1.003326416015625,294380.693868,0,11.9882,100.6763
1595636607.751666,5,0,0,1595636606.999924,1.370493736035993,103.8493519705093,12.04454,0,324.36054738165,43.907958984375,32.00483309472351,-9999,294383.89435275,0.03973388671875,0.008544921875,-1.009628295898438,294380.693868,0,11.9882,100.6763
1595636607.791477,6,0,0,1595636606.999924,1.370493736035993,103.8493519705093,12.04454,0,324.36054738165,43.907958984375,32.00483309472351,-9999,294383.93426775,0.0388336181640625,0.0087890625,-1.004638671875,294380.693868,0,11.9882,100.6763
1595636607.845,7,0,0,1595636606.999924,1.370493736035993,103.8493519705093,12.04454,0,324.36054738165,43.907958984375,32.00483309472351,-9999,294383.97418375,0.0387115478515625,0.00982666015625,-1.005203247070312,294380.693868,0,11.9882,100.6763
1595636607.871426,8,0,0,1595636606.999924,1.370493736035993,103.8493519705093,12.04454,0,324.36054738165,43.907958984375,32.00483309472351,-9999,294384.01409975,0.039215087890625,0.009552001953125,-1.005340576171875,294380.693868,0,11.9882,100.6763
1595636607.911273,9,0,0,1595636606.999924,1.370493736035993,103.8493519705093,12.04454,0,324.36054738165,43.907958984375,32.00483309472351,-9999,294384.05401475,0.0385284423828125,0.0076141357421875,-1.003036499023438,294380.693868,0,11.9882,100.6763
1595636607.968387,10,0,0,1595636606.999924,1.370493736035993,103.8493519705093,12.04454,0,324.36054738165,43.907958984375,32.00483309472351,-9999,294384.09393075,0.03924560546875,0.00714111328125,-1.002517700195312,294380.693868,0,11.9882,100.6763
1595636607.991162,11,0,0,1595636606.999924,1.370493736035993,103.8493519705093,12.04454,0,324.36054738165,43.907958984375,32.00483309472351,-9999,294384.13384575,0.0395965576171875,0.0067138671875,-1.003021240234375,294381.649004,0,11.98292,100.6764
1595636608.031027,12,0,0,1595636606.999924,1.370493736035993,103.8493519705093,12.04454,0,324.36054738165,43.907958984375,32.00483309472351,-9999,294384.17376175,0.03948974609375,0.006591796875,-1.0013427734375,294381.649004,0,11.98292,100.6764
1595636608.084318,13,0,0,1595636606.999924,1.370493736035993,103.8493519705093,12.04454,0,324.36054738165,43.907958984375,32.00483309472351,-9999,294384.2136775417,0.039825439453125,0.0047149658203125,-1.000656127929688,294381.649004,0,11.98292,100.6764
1595636608.110918,14,0,0,1595636606.999924,1.370493736035993,103.8493519705093,12.04454,0,324.36054738165,43.907958984375,32.00483309472351,-9999,294384.2535925417,0.0415802001953125,0.0044403076171875,-1.000106811523438,294381.649004,0,11.98292,100.6764
1595636608.150693,15,0,0,1595636606.999924,1.370493736035993,103.8493519705093,12.04454,0,324.36054738165,43.907958984375,32.00483309472351,-9999,294384.2935085417,0.04205322265625,0.00482177734375,-0.9998779296875,294381.649004,0,11.98292,100.6764
1595636608.203995,16,0,0,1595636607.999921,1.370493736035993,103.8493519705093,12.04454,-1,324.36054738165,46.51038360595703,32.00483309472351,-9999,294384.3334235417,0.0435638427734375,0.0040130615234375,-1.003173828125,294381.649004,0,11.98292,100.6764
1595636608.231011,17,0,0,1595636607.999921,1.370493736035993,103.8493519705093,12.04454,-1,324.36054738165,46.51038360595703,32.00483309472351,-9999,294384.3733395417,0.0438995361328125,0.004302978515625,-1.004730224609375,294381.649004,0,11.98292,100.6764
1595636608.270447,18,0,0,1595636607.999921,1.370493736035993,103.8493519705093,12.04454,-1,324.36054738165,46.51038360595703,32.00483309472351,-9999,294384.4132555417,0.0438232421875,0.0059051513671875,-1.00518798828125,294381.649004,0,11.98292,100.6764
1595636608.324742,19,0,0,1595636607.999921,1.370493736035993,103.8493519705093,12.04454,-1,324.36054738165,46.51038360595703,32.00483309472351,-9999,294384.4531705417,0.0427703857421875,0.0067901611328125,-1.0067138671875,294381.649004,0,11.98292,100.6764
1595636608.350401,20,0,0,1595636607.999921,1.370493736035993,103.8493519705093,12.04454,-1,324.36054738165,46.51038360595703,32.00483309472351,-9999,294384.4930865417,0.0414276123046875,0.008636474609375,-1.006820678710938,294381.649004,0,11.98292,100.6764
1595636608.39021,21,0,0,1595636607.999921,1.370493736035993,103.8493519705093,12.04454,-1,324.36054738165,46.51038360595703,32.00483309472351,-9999,294384.5330015417,0.04071044921875,0.009368896484375,-1.004486083984375,294381.649004,0,11.98292,100.6764
1595636608.445824,22,0,0,1595636607.999921,1.370493736035993,103.8493519705093,12.04454,-1,324.36054738165,46.51038360595703,32.00483309472351,-9999,294384.5729175417,0.0401458740234375,0.0100860595703125,-1.005401611328125,294381.649004,0,11.98292,100.6764
1595636608.470135,23,0,0,1595636607.999921,1.370493736035993,103.8493519705093,12.04454,-1,324.36054738165,46.51038360595703,32.00483309472351,-9999,294384.6128335417,0.0391845703125,0.0102691650390625,-1.003677368164062,294381.649004,0,11.98292,100.6764
1595636608.50996,24,0,0,1595636607.999921,1.370493736035993,103.8493519705093,12.04454,-1,324.36054738165,46.51038360595703,32.00483309472351,-9999,294384.6527485417,0.0386505126953125,0.0083160400390625,-1.000396728515625,294381.649004,0,11.98292,100.6764
1595636608.565679,25,0,0,1595636607.999921,1.370493736035993,103.8493519705093,12.04454,-1,324.36054738165,46.51038360595703,32.00483309472351,-9999,294384.6926645417,0.03753662109375,0.008758544921875,-1.000778198242188,294381.649004,0,11.98292,100.6764
1595636608.589945,26,0,0,1595636607.999921,1.370493736035993,103.8493519705093,12.04454,-1,324.36054738165,46.51038360595703,32.00483309472351,-9999,294384.7325795417,0.0377960205078125,0.0084228515625,-1.002197265625,294381.649004,0,11.98292,100.6764
1595636608.629726,27,0,0,1595636607.999921,1.370493736035993,103.8493519705093,12.04454,-1,324.36054738165,46.51038360595703,32.00483309472351,-9999,294384.7724955417,0.03875732421875,0.00604248046875,-1.00140380859375,294381.649004,0,11.98292,100.6764
1595636608.686439,28,0,0,1595636607.999921,1.370493736035993,103.8493519705093,12.04454,-1,324.36054738165,46.51038360595703,32.00483309472351,-9999,294384.8124115417,0.0377349853515625,0.007232666015625,-1.0028076171875,294381.649004,0,11.98292,100.6764
1595636608.709625,29,0,0,1595636607.999921,1.370493736035993,103.8493519705093,12.04454,-1,324.36054738165,46.51038360595703,32.00483309472351,-9999,294384.8523265417,0.03839111328125,0.0056915283203125,-1.004913330078125,294381.649004,0,11.98292,100.6764
1595636608.749436,30,0,0,1595636607.999921,1.370493736035993,103.8493519705093,12.04454,-1,324.36054738165,46.51038360595703,32.00483309472351,-9999,294384.8922425417,0.0399017333984375,0.0057525634765625,-1.004837036132812,294381.649004,0,11.98292,100.6764
1595636608.804874,31,0,0,1595636607.999921,1.370493736035993,103.8493519705093,12.04454,-1,324.36054738165,46.51038360595703,32.00483309472351,-9999,294384.9321585417,0.0408477783203125,0.0055389404296875,-1.005401611328125,294381.649004,0,11.98292,100.6764
1595636608.82936,32,0,0,1595636607.999921,1.370493736035993,103.8493519705093,12.04454,-1,324.36054738165,46.51038360595703,32.00483309472351,-9999,294384.9720735417,0.0413970947265625,0.0058135986328125,-1.0054931640625,294381.649004,0,11.98292,100.6764
1595636608.869537,33,0,0,1595636607.999921,1.370493736035993,103.8493519705093,12.04454,-1,324.36054738165,46.51038360595703,32.00483309472351,-9999,294385.0119895417,0.041839599609375,0.00640869140625,-1.004501342773438,294381.649004,0,11.98292,100.6764
1595636608.926936,34,0,0,1595636607.999921,1.370493736035993,103.8493519705093,12.04454,-1,324.36054738165,46.51038360595703,32.00483309472351,-9999,294385.0519045417,0.041534423828125,0.007843017578125,-1.003402709960938,294381.649004,0,11.98292,100.6764
1595636608.949154,35,0,0,1595636607.999921,1.370493736035993,103.8493519705093,12.04454,-1,324.36054738165,46.51038360595703,32.00483309472351,-9999,294385.0918205417,0.0427398681640625,0.0071868896484375,-1.003021240234375,294382.604164,0,11.98292,100.6764
1595636608.988927,36,0,0,1595636607.999921,1.370493736035993,103.8493519705093,12.04454,-1,324.36054738165,46.51038360595703,32.00483309472351,-9999,294385.1317365417,0.0428009033203125,0.006744384765625,-1.003875732421875,294382.604164,0,11.98292,100.6764
1595636609.046626,37,0,0,1595636607.999921,1.370493736035993,103.8493519705093,12.04454,-1,324.36054738165,46.51038360595703,32.00483309472351,-9999,294385.1716515417,0.04095458984375,0.0064239501953125,-1.00408935546875,294382.604164,0,11.98292,100.6764
1595636609.068854,38,0,0,1595636607.999921,1.370493736035993,103.8493519705093,12.04454,-1,324.36054738165,46.51038360595703,32.00483309472351,-9999,294385.2115675417,0.041290283203125,0.00823974609375,-1.002456665039062,294382.604164,0,11.98292,100.6764
1595636609.108645,39,0,0,1595636607.999921,1.370493736035993,103.8493519705093,12.04454,-1,324.36054738165,46.51038360595703,32.00483309472351,-9999,294385.251483375,0.040924072265625,0.006500244140625,-1.001312255859375,294382.604164,0,11.98292,100.6764
1595636609.166394,40,0,0,1595636607.999921,1.370493736035993,103.8493519705093,12.04454,-1,324.36054738165,46.51038360595703,32.00483309472351,-9999,294385.291399375,0.041259765625,0.0067901611328125,-0.999908447265625,294382.604164,0,11.98292,100.6764
1595636609.188632,41,0,0,1595636608.999918,1.370493736035993,103.8493519705093,12.04454,0,324.36054738165,45.61322402954102,32.00483309472351,-9999,294385.331315375,0.0414276123046875,0.005645751953125,-0.9988861083984375,294382.604164,0,11.98292,100.6764
1595636609.228407,42,0,0,1595636608.999918,1.370493736035993,103.8493519705093,12.04454,0,324.36054738165,45.61322402954102,32.00483309472351,-9999,294385.371230375,0.04168701171875,0.0058135986328125,-0.9994049072265625,294382.604164,0,11.98292,100.6764
1595636609.286391,43,0,0,1595636608.999918,1.370493736035993,103.8493519705093,12.04454,0,324.36054738165,45.61322402954102,32.00483309472351,-9999,294385.411146375,0.041290283203125,0.006134033203125,-1.002182006835938,294382.604164,0,11.98292,100.6764
1595636609.308329,44,0,0,1595636608.999918,1.370493736035993,103.8493519705093,12.04454,0,324.36054738165,45.61322402954102,32.00483309472351,-9999,294385.451062375,0.04193115234375,0.0065155029296875,-1.0047607421875,294382.604164,0,11.98292,100.6764
1595636609.348241,45,0,0,1595636608.999918,1.370493736035993,103.8493519705093,12.04454,0,324.36054738165,45.61322402954102,32.00483309472351,-9999,294385.490977375,0.0408782958984375,0.00738525390625,-1.007034301757812,294382.604164,0,11.98292,100.6764
1595636609.40874,46,0,0,1595636608.999918,1.370493736035993,103.8493519705093,12.04454,0,324.36054738165,45.61322402954102,32.00483309472351,-9999,294385.530893375,0.0408782958984375,0.0081329345703125,-1.009307861328125,294382.604164,0,11.98292,100.6764
1595636609.428167,47,0,0,1595636608.999918,1.370493736035993,103.8493519705093,12.04454,0,324.36054738165,45.61322402954102,32.00483309472351,-9999,294385.570809375,0.0401763916015625,0.009246826171875,-1.007827758789062,294382.604164,0,11.98292,100.6764
1595636609.46825,48,0,0,1595636608.999918,1.370493736035993,103.8493519705093,12.04454,0,324.36054738165,45.61322402954102,32.00483309472351,-9999,294385.610724375,0.0397491455078125,0.009002685546875,-1.0081787109375,294382.604164,0,11.98292,100.6764
1595636609.525956,49,0,0,1595636608.999918,1.370493736035993,103.8493519705093,12.04454,0,324.36054738165,45.61322402954102,32.00483309472351,-9999,294385.650640375,0.039154052734375,0.0088043212890625,-1.006515502929688,294382.604164,0,11.98292,100.6764
1595636609.54795,50,0,0,1595636608.999918,1.370493736035993,103.8493519705093,12.04454,0,324.36054738165,45.61322402954102,32.00483309472351,-9999,294385.690555375,0.0394439697265625,0.0092010498046875,-1.005523681640625,294382.604164,0,11.98292,100.6764
1595636609.58763,51,0,0,1595636608.999918,1.370493736035993,103.8493519705093,12.04454,0,324.36054738165,45.61322402954102,32.00483309472351,-9999,294385.730471375,0.0382080078125,0.0085906982421875,-1.001724243164062,294382.604164,0,11.98292,100.6764
1595636609.645239,52,0,0,1595636608.999918,1.370493736035993,103.8493519705093,12.04454,0,324.36054738165,45.61322402954102,32.00483309472351,-9999,294385.770387375,0.037384033203125,0.008697509765625,-0.999176025390625,294382.604164,0,11.98292,100.6764
1595636609.667633,53,0,0,1595636608.999918,1.370493736035993,103.8493519705093,12.04454,0,324.36054738165,45.61322402954102,32.00483309472351,-9999,294385.810302375,0.0369720458984375,0.0063934326171875,-0.9999237060546875,294382.604164,0,11.98292,100.6764
1595636609.70742,54,0,0,1595636608.999918,1.370493736035993,103.8493519705093,12.04454,0,324.36054738165,45.61322402954102,32.00483309472351,-9999,294385.850218375,0.036102294921875,0.006134033203125,-0.9979095458984375,294382.604164,0,11.98292,100.6764
1595636609.765484,55,0,0,1595636608.999918,1.370493736035993,103.8493519705093,12.04454,0,324.36054738165,45.61322402954102,32.00483309472351,-9999,294385.890133375,0.037689208984375,0.0055694580078125,-0.9998016357421875,294382.604164,0,11.98292,100.6764
1595636609.78736,56,0,0,1595636608.999918,1.370493736035993,103.8493519705093,12.04454,0,324.36054738165,45.61322402954102,32.00483309472351,-9999,294385.930049375,0.039459228515625,0.0043182373046875,-1.001495361328125,294382.604164,0,11.98292,100.6764
1595636609.827239,57,0,0,1595636608.999918,1.370493736035993,103.8493519705093,12.04454,0,324.36054738165,45.61322402954102,32.00483309472351,-9999,294385.969965375,0.0392913818359375,0.004364013671875,-1.000747680664062,294382.604164,0,11.98292,100.6764
1595636609.88507,58,0,0,1595636608.999918,1.370493736035993,103.8493519705093,12.04454,0,324.36054738165,45.61322402954102,32.00483309472351,-9999,294386.009880375,0.041595458984375,0.0034942626953125,-1.00372314453125,294382.604164,0,11.98292,100.6764
1595636609.90722,59,0,0,1595636608.999918,1.370493736035993,103.8493519705093,12.04454,0,324.36054738165,45.61322402954102,32.00483309472351,-9999,294386.049796375,0.0443878173828125,0.0036163330078125,-1.003952026367188,294383.559313,0,11.97499,100.6765
1595636609.946901,60,0,0,1595636608.999918,1.370493736035993,103.8493519705093,12.04454,0,324.36054738165,45.61322402954102,32.00483309472351,-9999,294386.089712375,0.044708251953125,0.004852294921875,-1.005386352539062,294383.559313,0,11.97499,100.6765
1595636610.005519,61,0,0,1595636608.999918,1.370493736035993,103.8493519705093,12.04454,0,324.36054738165,45.61322402954102,32.00483309472351,-9999,294386.129627375,0.045135498046875,0.006256103515625,-1.007080078125,294383.559313,0,11.97499,100.6765
1595636610.026952,62,0,0,1595636608.999918,1.370493736035993,103.8493519705093,12.04454,0,324.36054738165,45.61322402954102,32.00483309472351,-9999,294386.169543375,0.0438690185546875,0.00775146484375,-1.008743286132812,294383.559313,0,11.97499,100.6765
1595636610.066651,63,0,0,1595636608.999918,1.370493736035993,103.8493519705093,12.04454,0,324.36054738165,45.61322402954102,32.00483309472351,-9999,294386.209458375,0.0430755615234375,0.0079193115234375,-1.008697509765625,294383.559313,0,11.97499,100.6765
1595636610.125865,64,0,0,1595636608.999918,1.370493736035993,103.8493519705093,12.04454,0,324.36054738165,45.61322402954102,32.00483309472351,-9999,294386.2493739167,0.04205322265625,0.008819580078125,-1.006301879882812,294383.559313,0,11.97499,100.6765
1595636610.146612,65,0,0,1595636608.999918,1.370493736035993,103.8493519705093,12.04454,0,324.36054738165,45.61322402954102,32.00483309472351,-9999,294386.2892899167,0.0422821044921875,0.008514404296875,-1.0030517578125,294383.559313,0,11.97499,100.6765
1595636610.186386,66,0,0,1595636609.999913,1.370493736035993,103.8493519705093,12.04454,-1,324.36054738165,58.9188117980957,32.00483309472351,-9999,294386.3292049167,0.04132080078125,0.0090484619140625,-1.003280639648438,294383.559313,0,11.97499,100.6765
1595636610.226549,67,0,0,1595636609.999913,1.370493736035993,103.8493519705093,12.04454,-1,324.36054738165,58.9188117980957,32.00483309472351,-9999,294386.3691209167,0.0410003662109375,0.0079193115234375,-1.002029418945312,294383.559313,0,11.97499,100.6765
1595636610.266777,68,0,0,1595636609.999913,1.370493736035993,103.8493519705093,12.04454,-1,324.36054738165,58.9188117980957,32.00483309472351,-9999,294386.4090369167,0.042327880859375,0.0085601806640625,-0.9995574951171875,294383.559313,0,11.97499,100.6765
1595636610.30645,69,0,0,1595636609.999913,1.370493736035993,103.8493519705093,12.04454,-1,324.36054738165,58.9188117980957,32.00483309472351,-9999,294386.4489519167,0.0402984619140625,0.0082550048828125,-0.9980621337890625,294383.559313,0,11.97499,100.6765
1595636610.346874,70,0,0,1595636609.999913,1.370493736035993,103.8493519705093,12.04454,-1,324.36054738165,58.9188117980957,32.00483309472351,-9999,294386.4888679167,0.0418548583984375,0.0072174072265625,-1.001373291015625,294383.559313,0,11.97499,100.6765
1595636610.386207,71,0,0,1595636609.999913,1.370493736035993,103.8493519705093,12.04454,-1,324.36054738165,58.9188117980957,32.00483309472351,-9999,294386.5287829167,0.0399169921875,0.0063934326171875,-0.9970550537109375,294383.559313,0,11.97499,100.6765
1595636610.425964,72,0,0,1595636609.999913,1.370493736035993,103.8493519705093,12.04454,-1,324.36054738165,58.9188117980957,32.00483309472351,-9999,294386.5686989167,0.03912353515625,0.006561279296875,-0.9998016357421875,294383.559313,0,11.97499,100.6765
1595636610.466903,73,0,0,1595636609.999913,1.370493736035993,103.8493519705093,12.04454,-1,324.36054738165,58.9188117980957,32.00483309472351,-9999,294386.6086149167,0.0400238037109375,0.00579833984375,-1.001602172851562,294383.559313,0,11.97499,100.6765
1595636610.5059,74,0,0,1595636609.999913,1.370493736035993,103.8493519705093,12.04454,-1,324.36054738165,58.9188117980957,32.00483309472351,-9999,294386.6485299167,0.0398101806640625,0.0067138671875,-1.007003784179688,294383.559313,0,11.97499,100.6765
1595636610.545646,75,0,0,1595636609.999913,1.370493736035993,103.8493519705093,12.04454,-1,324.36054738165,58.9188117980957,32.00483309472351,-9999,294386.6884459167,0.040679931640625,0.009490966796875,-1.013656616210938,294383.559313,0,11.97499,100.6765
1595636610.586835,76,0,0,1595636609.999913,1.370493736035993,103.8493519705093,12.04454,-1,324.36054738165,58.9188117980957,32.00483309472351,-9999,294386.7283619167,0.038726806640625,0.0110321044921875,-1.014572143554688,294383.559313,0,11.97499,100.6765
1595636610.625654,77,0,0,1595636609.999913,1.370493736035993,103.8493519705093,12.04454,-1,324.36054738165,58.9188117980957,32.00483309472351,-9999,294386.7682769167,0.0344696044921875,0.01025390625,-1.014175415039062,294383.559313,0,11.97499,100.6765
1595636610.66536,78,0,0,1595636609.999913,1.370493736035993,103.8493519705093,12.04454,-1,324.36054738165,58.9188117980957,32.00483309472351,-9999,294386.8081929167,0.03662109375,0.0067596435546875,-1.002334594726562,294383.559313,0,11.97499,100.6765
1595636610.706826,79,0,0,1595636609.999913,1.370493736035993,103.8493519705093,12.04454,-1,324.36054738165,58.9188117980957,32.00483309472351,-9999,294386.8481079167,0.038055419921875,0.00726318359375,-1.001861572265625,294383.559313,0,11.97499,100.6765
1595636610.745313,80,0,0,1595636609.999913,1.370493736035993,103.8493519705093,12.04454,-1,324.36054738165,58.9188117980957,32.00483309472351,-9999,294386.8880239167,0.0382843017578125,0.006011962890625,-1.001617431640625,294383.559313,0,11.97499,100.6765
1595636610.785182,81,0,0,1595636609.999913,1.370493736035993,103.8493519705093,12.04454,-1,324.36054738165,58.9188117980957,32.00483309472351,-9999,294386.9279399167,0.0379486083984375,0.0059356689453125,-0.9984893798828125,294383.559313,0,11.97499,100.6765
1595636610.826853,82,0,0,1595636609.999913,1.370493736035993,103.8493519705093,12.04454,-1,324.36054738165,58.9188117980957,32.00483309472351,-9999,294386.9678549167,0.0394439697265625,0.004364013671875,-0.99755859375,294384.514523,0,11.96971,100.6765
1595636610.86509,83,0,0,1595636609.999913,1.370493736035993,103.8493519705093,12.04454,-1,324.36054738165,58.9188117980957,32.00483309472351,-9999,294387.0077709167,0.0407257080078125,0.003570556640625,-0.9991302490234375,294384.514523,0,11.96971,100.6765
1595636610.906839,84,0,0,1595636609.999913,1.370493736035993,103.8493519705093,12.04454,-1,324.36054738165,58.9188117980957,32.00483309472351,-9999,294387.0476859167,0.0435791015625,0.004302978515625,-0.999053955078125,294384.514523,0,11.96971,100.6765
1595636610.946844,85,0,0,1595636609.999913,1.370493736035993,103.8493519705093,12.04454,-1,324.36054738165,58.9188117980957,32.00483309472351,-9999,294387.0876019167,0.0420684814453125,0.0066070556640625,-1.002944946289062,294384.514523,0,11.96971,100.6765
1595636610.984761,86,0,0,1595636609.999913,1.370493736035993,103.8493519705093,12.04454,-1,324.36054738165,58.9188117980957,32.00483309472351,-9999,294387.1275179167,0.04254150390625,0.007232666015625,-1.00177001953125,294384.514523,0,11.96971,100.6765
1595636611.024971,87,0,0,1595636609.999913,1.370493736035993,103.8493519705093,12.04454,-1,324.36054738165,58.9188117980957,32.00483309472351,-9999,294387.1674329167,0.042327880859375,0.0086669921875,-1.006500244140625,294384.514523,0,11.96971,100.6765
1595636611.067121,88,0,0,1595636609.999913,1.370493736035993,103.8493519705093,12.04454,-1,324.36054738165,58.9188117980957,32.00483309472351,-9999,294387.2073489167,0.04248046875,0.007598876953125,-1.002609252929688,294384.514523,0,11.96971,100.6765
1595636611.104623,89,0,0,1595636609.999913,1.370493736035993,103.8493519705093,12.04454,-1,324.36054738165,58.9188117980957,32.00483309472351,-9999,294387.247265,0.0417633056640625,0.0077667236328125,-1.00433349609375,294384.514523,0,11.96971,100.6765
1595636611.147064,90,0,0,1595636609.999913,1.370493736035993,103.8493519705093,12.04454,-1,324.36054738165,58.9188117980957,32.00483309472351,-9999,294387.28718,0.04376220703125,0.0089111328125,-1.005340576171875,294384.514523,0,11.96971,100.6765
1595636611.187016,91,0,0,1595636610.999909,1.370493736035993,103.8493519705093,12.04454,-1,324.36054738165,51.04266357421875,32.00483309472351,-9999,294387.327096,0.0415191650390625,0.008575439453125,-1.007293701171875,294384.514523,0,11.96971,100.6765
1595636611.224313,92,0,0,1595636610.999909,1.370493736035993,103.8493519705093,12.04454,-1,324.36054738165,51.04266357421875,32.00483309472351,-9999,294387.367011,0.0425262451171875,0.0094757080078125,-1.0068359375,294384.514523,0,11.96971,100.6765
1595636611.267004,93,0,0,1595636610.999909,1.370493736035993,103.8493519705093,12.04454,-1,324.36054738165,51.04266357421875,32.00483309472351,-9999,294387.406927,0.03961181640625,0.0096893310546875,-1.004867553710938,294384.514523,0,11.96971,100.6765
1595636611.304242,94,0,0,1595636610.999909,1.370493736035993,103.8493519705093,12.04454,-1,324.36054738165,51.04266357421875,32.00483309472351,-9999,294387.446843,0.0411376953125,0.007598876953125,-1.0048828125,294384.514523,0,11.96971,100.6765
1595636611.344016,95,0,0,1595636610.999909,1.370493736035993,103.8493519705093,12.04454,-1,324.36054738165,51.04266357421875,32.00483309472351,-9999,294387.486758,0.03851318359375,0.007843017578125,-1.000717163085938,294384.514523,0,11.96971,100.6765
1595636611.386812,96,0,0,1595636610.999909,1.370493736035993,103.8493519705093,12.04454,-1,324.36054738165,51.04266357421875,32.00483309472351,-9999,294387.526674,0.0368804931640625,0.0069427490234375,-1.003005981445312,294384.514523,0,11.96971,100.6765
1595636611.423952,97,0,0,1595636610.999909,1.370493736035993,103.8493519705093,12.04454,-1,324.36054738165,51.04266357421875,32.00483309472351,-9999,294387.566589,0.0389556884765625,0.002349853515625,-0.9993133544921875,294384.514523,0,11.96971,100.6765
1595636611.46385,98,0,0,1595636610.999909,1.370493736035993,103.8493519705093,12.04454,-1,324.36054738165,51.04266357421875,32.00483309472351,-9999,294387.606505,0.038421630859375,0.0037078857421875,-0.9983367919921875,294384.514523,0,11.96971,100.6765
1595636611.506048,99,0,0,1595636610.999909,1.370493736035993,103.8493519705093,12.04454,-1,324.36054738165,51.04266357421875,32.00483309472351,-9999,294387.646421,0.038360595703125,0.005157470703125,-0.997772216796875,294384.514523,0,11.96971,100.6765
1595636611.543709,100,0,0,1595636610.999909,1.370493736035993,103.8493519705093,12.04454,-1,324.36054738165,51.04266357421875,32.00483309472351,-9999,294387.686336,0.040435791015625,0.0044403076171875,-0.999603271484375,294384.514523,0,11.96971,100.6765
1595636611.583406,101,0,0,1595636610.999909,1.370493736035993,103.8493519705093,12.04454,-1,324.36054738165,51.04266357421875,32.00483309472351,-9999,294387.726252,0.0415496826171875,0.0037078857421875,-1.002227783203125,294384.514523,0,11.96971,100.6765
1595636611.625381,102,0,0,1595636610.999909,1.370493736035993,103.8493519705093,12.04454,-1,324.36054738165,51.04266357421875,32.00483309472351,-9999,294387.766168,0.0406646728515625,0.0057373046875,-1.003463745117188,294384.514523,0,11.96971,100.6765
1595636611.663422,103,0,0,1595636610.999909,1.370493736035993,103.8493519705093,12.04454,-1,324.36054738165,51.04266357421875,32.00483309472351,-9999,294387.806083,0.0404052734375,0.00604248046875,-1.006423950195312,294384.514523,0,11.96971,100.6765
1595636611.703363,104,0,0,1595636610.999909,1.370493736035993,103.8493519705093,12.04454,-1,324.36054738165,51.04266357421875,32.00483309472351,-9999,294387.845999,0.043304443359375,0.0069732666015625,-1.005477905273438,294384.514523,0,11.96971,100.6765
1595636611.74728,105,0,0,1595636610.999909,1.370493736035993,103.8493519705093,12.04454,-1,324.36054738165,51.04266357421875,32.00483309472351,-9999,294387.885914,0.041656494140625,0.00732421875,-1.006301879882812,294384.514523,0,11.96971,100.6765
1595636611.783204,106,0,0,1595636610.999909,1.370493736035993,103.8493519705093,12.04454,-1,324.36054738165,51.04266357421875,32.00483309472351,-9999,294387.92583,0.0416259765625,0.0081939697265625,-1.0062255859375,294385.469719,0,11.96178,100.6766
1595636611.823146,107,0,0,1595636610.999909,1.370493736035993,103.8493519705093,12.04454,-1,324.36054738165,51.04266357421875,32.00483309472351,-9999,294387.965746,0.0402679443359375,0.009979248046875,-1.008224487304688,294385.469719,0,11.96178,100.6766
1595636611.86472,108,0,0,1595636610.999909,1.370493736035993,103.8493519705093,12.04454,-1,324.36054738165,51.04266357421875,32.00483309472351,-9999,294388.005661,0.040924072265625,0.00848388671875,-1.0068359375,294385.469719,0,11.96178,100.6766
1595636611.902947,109,0,0,1595636610.999909,1.370493736035993,103.8493519705093,12.04454,-1,324.36054738165,51.04266357421875,32.00483309472351,-9999,294388.045577,0.040130615234375,0.00872802734375,-1.004531860351562,294385.469719,0,11.96178,100.6766
1595636611.942843,110,0,0,1595636610.999909,1.370493736035993,103.8493519705093,12.04454,-1,324.36054738165,51.04266357421875,32.00483309472351,-9999,294388.085492,0.0424041748046875,0.0070953369140625,-1.000839233398438,294385.469719,0,11.96178,100.6766
1595636611.98672,111,0,0,1595636610.999909,1.370493736035993,103.8493519705093,12.04454,-1,324.36054738165,51.04266357421875,32.00483309472351,-9999,294388.125408,0.0417327880859375,0.00726318359375,-1.004379272460938,294385.469719,0,11.96178,100.6766
1595636612.022676,112,0,0,1595636610.999909,1.370493736035993,103.8493519705093,12.04454,-1,324.36054738165,51.04266357421875,32.00483309472351,-9999,294388.165324,0.0419464111328125,0.0070343017578125,-1.001663208007812,294385.469719,0,11.96178,100.6766
1595636612.062466,113,0,0,1595636610.999909,1.370493736035993,103.8493519705093,12.04454,-1,324.36054738165,51.04266357421875,32.00483309472351,-9999,294388.205239,0.0417327880859375,0.0077362060546875,-0.9995574951171875,294385.469719,0,11.96178,100.6766
1595636612.105966,114,0,0,1595636610.999909,1.370493736035993,103.8493519705093,12.04454,-1,324.36054738165,51.04266357421875,32.00483309472351,-9999,294388.2451555,0.041168212890625,0.0066986083984375,-1.003509521484375,294385.469719,0,11.96178,100.6766
1595636612.142275,115,0,0,1595636610.999909,1.370493736035993,103.8493519705093,12.04454,-1,324.36054738165,51.04266357421875,32.00483309472351,-9999,294388.2850715,0.0399627685546875,0.0043792724609375,-1.000991821289062,294385.469719,0,11.96178,100.6766
1595636612.182215,116,0,0,1595636611.999906,1.370493736035993,103.8493519705093,12.04454,-1,324.36054738165,9.911297798156738,48.00724964208526,-9999,294388.3249865,0.0408935546875,0.007965087890625,-1.005142211914062,294385.469719,0,11.96178,100.6766
1595636612.223856,117,0,0,1595636611.999906,1.370493736035993,103.8493519705093,12.04454,-1,324.36054738165,9.911297798156738,48.00724964208526,-9999,294388.3649025,0.0397491455078125,0.0082244873046875,-1.00054931640625,294385.469719,0,11.96178,100.6766
1595636612.262191,118,0,0,1595636611.999906,1.370493736035993,103.8493519705093,12.04454,-1,324.36054738165,9.911297798156738,48.00724964208526,-9999,294388.4048175,0.0397796630859375,0.00762939453125,-1.003677368164062,294385.469719,0,11.96178,100.6766
1595636612.30204,119,0,0,1595636611.999906,1.370493736035993,103.8493519705093,12.04454,-1,324.36054738165,9.911297798156738,48.00724964208526,-9999,294388.4447335,0.04095458984375,0.010528564453125,-1.0069580078125,294385.469719,0,11.96178,100.6766
1595636612.349787,120,0,0,1595636611.999906,1.370493736035993,103.8493519705093,12.04454,-1,324.36054738165,9.911297798156738,48.00724964208526,-9999,294388.4846495,0.0401611328125,0.0095367431640625,-1.00555419921875,294385.469719,0,11.96178,100.6766
1595636612.381909,121,0,0,1595636611.999906,1.370493736035993,103.8493519705093,12.04454,-1,324.36054738165,9.911297798156738,48.00724964208526,-9999,294388.5245645,0.038787841796875,0.005126953125,-1.001235961914062,294385.469719,0,11.96178,100.6766
1595636612.421768,122,0,0,1595636611.999906,1.370493736035993,103.8493519705093,12.04454,-1,324.36054738165,9.911297798156738,48.00724964208526,-9999,294388.5644805,0.0401153564453125,0.006378173828125,-1.002273559570312,294385.469719,0,11.96178,100.6766
1595636612.467007,123,0,0,1595636611.999906,1.370493736035993,103.8493519705093,12.04454,-1,324.36054738165,9.911297798156738,48.00724964208526,-9999,294388.6043955,0.0401763916015625,0.00830078125,-1.001251220703125,294385.469719,0,11.96178,100.6766
1595636612.501691,124,0,0,1595636611.999906,1.370493736035993,103.8493519705093,12.04454,-1,324.36054738165,9.911297798156738,48.00724964208526,-9999,294388.6443115,0.0411529541015625,0.003448486328125,-0.9936676025390625,294385.469719,0,11.96178,100.6766
1595636612.541546,125,0,0,1595636611.999906,1.370493736035993,103.8493519705093,12.04454,-1,324.36054738165,9.911297798156738,48.00724964208526,-9999,294388.6842275,0.0413665771484375,0.0046234130859375,-1.003738403320312,294385.469719,0,11.96178,100.6766
1595636612.586499,126,0,0,1595636611.999906,1.370493736035993,103.8493519705093,12.04454,-1,324.36054738165,9.911297798156738,48.00724964208526,-9999,294388.7241425,0.0428924560546875,0.0033111572265625,-0.9962921142578125,294385.469719,0,11.96178,100.6766
1595636612.621455,127,0,0,1595636611.999906,1.370493736035993,103.8493519705093,12.04454,-1,324.36054738165,9.911297798156738,48.00724964208526,-9999,294388.7640585,0.043487548828125,0.0037689208984375,-1.002777099609375,294385.469719,0,11.96178,100.6766
1595636612.661418,128,0,0,1595636611.999906,1.370493736035993,103.8493519705093,12.04454,-1,324.36054738165,9.911297798156738,48.00724964208526,-9999,294388.8039735,0.0443267822265625,0.00640869140625,-1.0023193359375,294385.469719,0,11.96178,100.6766
1595636612.706261,129,0,0,1595636611.999906,1.370493736035993,103.8493519705093,12.04454,-1,324.36054738165,9.911297798156738,48.00724964208526,-9999,294388.8438895,0.04156494140625,0.0070037841796875,-1.00421142578125,294385.469719,0,11.96178,100.6766
1595636612.741095,130,0,0,1595636611.999906,1.370493736035993,103.8493519705093,12.04454,-1,324.36054738165,9.911297798156738,48.00724964208526,-9999,294388.8838055,0.0399017333984375,0.0067596435546875,-1.009246826171875,294386.424963,0,11.96178,100.6766
1595636612.780998,131,0,0,1595636611.999906,1.370493736035993,103.8493519705093,12.04454,-1,324.36054738165,9.911297798156738,48.00724964208526,-9999,294388.9237205,0.0386199951171875,0.0097198486328125,-1.012374877929688,294386.424963,0,11.96178,100.6766
1595636612.826322,132,0,0,1595636611.999906,1.370493736035993,103.8493519705093,12.04454,-1,324.36054738165,9.911297798156738,48.00724964208526,-9999,294388.9636365,0.038787841796875,0.01202392578125,-1.013717651367188,294386.424963,0,11.96178,100.6766
1595636612.860886,133,0,0,1595636611.999906,1.370493736035993,103.8493519705093,12.04454,-1,324.36054738165,9.911297798156738,48.00724964208526,-9999,294389.0035515,0.038726806640625,0.0080413818359375,-0.994476318359375,294386.424963,0,11.96178,100.6766
1595636612.900779,134,0,0,1595636611.999906,1.370493736035993,103.8493519705093,12.04454,-1,324.36054738165,9.911297798156738,48.00724964208526,-9999,294389.0434675,0.0384521484375,0.0088043212890625,-1.00238037109375,294386.424963,0,11.96178,100.6766
1595636612.94545,135,0,0,1595636611.999906,1.370493736035993,103.8493519705093,12.04454,-1,324.36054738165,9.911297798156738,48.00724964208526,-9999,294389.0833835,0.037872314453125,0.0098724365234375,-1.002960205078125,294386.424963,0,11.96178,100.6766
1595636612.980657,136,0,0,1595636611.999906,1.370493736035993,103.8493519705093,12.04454,-1,324.36054738165,9.911297798156738,48.00724964208526,-9999,294389.1232985,0.03997802734375,0.012237548828125,-1.001663208007812,294386.424963,0,11.96178,100.6766
1595636613.020648,137,0,0,1595636611.999906,1.370493736035993,103.8493519705093,12.04454,-1,324.36054738165,9.911297798156738,48.00724964208526,-9999,294389.1632145,0.03887939453125,0.0088043212890625,-1.007339477539062,294386.424963,0,11.96178,100.6766
1595636613.067533,138,0,0,1595636611.999906,1.370493736035993,103.8493519705093,12.04454,-1,324.36054738165,9.911297798156738,48.00724964208526,-9999,294389.2031295,0.0401458740234375,0.0088348388671875,-1.003402709960938,294386.424963,0,11.96178,100.6766
1595636613.100426,139,0,0,1595636611.999906,1.370493736035993,103.8493519705093,12.04454,-1,324.36054738165,9.911297798156738,48.00724964208526,-9999,294389.24304475,0.042694091796875,0.0043182373046875,-1.003662109375,294386.424963,0,11.96178,100.6766
1595636613.140251,140,0,0,1595636611.999906,1.370493736035993,103.8493519705093,12.04454,-1,324.36054738165,9.911297798156738,48.00724964208526,-9999,294389.28296075,0.0423583984375,0.0044403076171875,-1.000076293945312,294386.424963,0,11.96178,100.6766
1595636613.185668,141,0,0,1595636612.999903,1.370493736035993,103.8493519705093,12.04454,0,324.36054738165,24.76217079162598,48.00724964208526,-9999,294389.32287575,0.0409698486328125,0.0012054443359375,-0.9957733154296875,294386.424963,0,11.96178,100.6766
1595636613.220231,142,0,0,1595636612.999903,1.370493736035993,103.8493519705093,12.04454,0,324.36054738165,24.76217079162598,48.00724964208526,-9999,294389.36279175,0.0466461181640625,0.0025482177734375,-0.9966583251953125,294386.424963,0,11.96178,100.6766
1595636613.259992,143,0,0,1595636612.999903,1.370493736035993,103.8493519705093,12.04454,0,324.36054738165,24.76217079162598,48.00724964208526,-9999,294389.40270775,0.046661376953125,0.006927490234375,-0.998992919921875,294386.424963,0,11.96178,100.6766
1595636613.305124,144,0,0,1595636612.999903,1.370493736035993,103.8493519705093,12.04454,0,324.36054738165,24.76217079162598,48.00724964208526,-9999,294389.44262275,0.0386810302734375,0.0030059814453125,-1.009674072265625,294386.424963,0,11.96178,100.6766
1595636613.339921,145,0,0,1595636612.999903,1.370493736035993,103.8493519705093,12.04454,0,324.36054738165,24.76217079162598,48.00724964208526,-9999,294389.48253875,0.041778564453125,0.0049285888671875,-0.9983367919921875,294386.424963,0,11.96178,100.6766
1595636613.379782,146,0,0,1595636612.999903,1.370493736035993,103.8493519705093,12.04454,0,324.36054738165,24.76217079162598,48.00724964208526,-9999,294389.52245375,0.0438232421875,0.00701904296875,-1.004302978515625,294386.424963,0,11.96178,100.6766
1595636613.423428,147,0,0,1595636612.999903,1.370493736035993,103.8493519705093,12.04454,0,324.36054738165,24.76217079162598,48.00724964208526,-9999,294389.56236975,0.0384979248046875,0.0091400146484375,-1.01568603515625,294386.424963,0,11.96178,100.6766
1595636613.459566,148,0,0,1595636612.999903,1.370493736035993,103.8493519705093,12.04454,0,324.36054738165,24.76217079162598,48.00724964208526,-9999,294389.60228475,0.0205078125,0.0072784423828125,-0.998016357421875,294386.424963,0,11.96178,100.6766
1595636613.499562,149,0,0,1595636612.999903,1.370493736035993,103.8493519705093,12.04454,0,324.36054738165,24.76217079162598,48.00724964208526,-9999,294389.64220075,0.04638671875,0.008575439453125,-0.9677734375,294386.424963,0,11.96178,100.6766
1595636613.544757,150,0,0,1595636612.999903,1.370493736035993,103.8493519705093,12.04454,0,324.36054738165,24.76217079162598,48.00724964208526,-9999,294389.68211675,0.0341644287109375,0.0058135986328125,-1.015090942382812,294386.424963,0,11.96178,100.6766
1595636613.579397,151,0,0,1595636612.999903,1.370493736035993,103.8493519705093,12.04454,0,324.36054738165,24.76217079162598,48.00724964208526,-9999,294389.72203175,0.0469970703125,0.0076904296875,-0.9914093017578125,294386.424963,0,11.96178,100.6766
1595636613.619296,152,0,0,1595636612.999903,1.370493736035993,103.8493519705093,12.04454,0,324.36054738165,24.76217079162598,48.00724964208526,-9999,294389.76194775,0.0374603271484375,0.0074462890625,-1.0078125,294386.424963,0,11.96178,100.6766
1595636613.666103,153,0,0,1595636612.999903,1.370493736035993,103.8493519705093,12.04454,0,324.36054738165,24.76217079162598,48.00724964208526,-9999,294389.80186375,0.037017822265625,0.0070343017578125,-0.994903564453125,294386.424963,0,11.96178,100.6766
1595636613.699089,154,0,0,1595636612.999903,1.370493736035993,103.8493519705093,12.04454,0,324.36054738165,24.76217079162598,48.00724964208526,-9999,294389.84177875,0.0417327880859375,0.0082550048828125,-0.99169921875,294387.38013,0,11.96178,100.6766
1595636613.738985,155,0,0,1595636612.999903,1.370493736035993,103.8493519705093,12.04454,0,324.36054738165,24.76217079162598,48.00724964208526,-9999,294389.88169475,0.0411834716796875,0.0078125,-1.0008544921875,294387.38013,0,11.96178,100.6766
1595636613.78718,156,0,0,1595636612.999903,1.370493736035993,103.8493519705093,12.04454,0,324.36054738165,24.76217079162598,48.00724964208526,-9999,294389.92160975,0.0417633056640625,0.007110595703125,-1.000015258789062,294387.38013,0,11.96178,100.6766
1595636613.818939,157,0,0,1595636612.999903,1.370493736035993,103.8493519705093,12.04454,0,324.36054738165,24.76217079162598,48.00724964208526,-9999,294389.96152575,0.04534912109375,0.0068206787109375,-1.000778198242188,294387.38013,0,11.96178,100.6766
1595636613.858745,158,0,0,1595636612.999903,1.370493736035993,103.8493519705093,12.04454,0,324.36054738165,24.76217079162598,48.00724964208526,-9999,294390.00144175,0.0417633056640625,0.0084381103515625,-1.006805419921875,294387.38013,0,11.96178,100.6766
1595636613.904814,159,0,0,1595636612.999903,1.370493736035993,103.8493519705093,12.04454,0,324.36054738165,24.76217079162598,48.00724964208526,-9999,294390.04135675,0.03955078125,0.0082244873046875,-1.009246826171875,294387.38013,0,11.96178,100.6766
1595636613.938581,160,0,0,1595636612.999903,1.370493736035993,103.8493519705093,12.04454,0,324.36054738165,24.76217079162598,48.00724964208526,-9999,294390.08127275,0.04144287109375,0.007781982421875,-1.004592895507812,294387.38013,0,11.96178,100.6766
1595636613.97839,161,0,0,1595636612.999903,1.370493736035993,103.8493519705093,12.04454,0,324.36054738165,24.76217079162598,48.00724964208526,-9999,294390.12118775,0.040130615234375,0.0098724365234375,-1.008529663085938,294387.38013,0,11.96178,100.6766
1595636614.024267,162,0,0,1595636612.999903,1.370493736035993,103.8493519705093,12.04454,0,324.36054738165,24.76217079162598,48.00724964208526,-9999,294390.16110375,0.0396881103515625,0.0090789794921875,-1.006393432617188,294387.38013,0,11.96178,100.6766
1595636614.058408,163,0,0,1595636612.999903,1.370493736035993,103.8493519705093,12.04454,0,324.36054738165,24.76217079162598,48.00724964208526,-9999,294390.20101975,0.039215087890625,0.0083160400390625,-1.004226684570312,294387.38013,0,11.96178,100.6766
1595636614.098243,164,0,0,1595636612.999903,1.370493736035993,103.8493519705093,12.04454,0,324.36054738165,24.76217079162598,48.00724964208526,-9999,294390.24093475,0.0379638671875,0.00836181640625,-1.000991821289062,294387.38013,0,11.96178,100.6766
1595636614.144576,165,0,0,1595636612.999903,1.370493736035993,103.8493519705093,12.04454,0,324.36054738165,24.76217079162598,48.00724964208526,-9999,294390.28085075,0.0389556884765625,0.006683349609375,-1.000564575195312,294387.38013,0,11.96178,100.6766
1595636614.17813,166,0,0,1595636613.999899,1.370493736035993,103.8493519705093,12.04454,-1,324.36054738165,51.2360954284668,48.00724964208526,-9999,294390.32076575,0.0411224365234375,0.004486083984375,-0.9980316162109375,294387.38013,0,11.96178,100.6766
1595636614.218133,167,0,0,1595636613.999899,1.370493736035993,103.8493519705093,12.04454,-1,324.36054738165,51.2360954284668,48.00724964208526,-9999,294390.36068175,0.039886474609375,0.00445556640625,-0.999786376953125,294387.38013,0,11.96178,100.6766
1595636614.263407,168,0,0,1595636613.999899,1.370493736035993,103.8493519705093,12.04454,-1,324.36054738165,51.2360954284668,48.00724964208526,-9999,294390.40059675,0.0417327880859375,0.0037689208984375,-0.999298095703125,294387.38013,0,11.96178,100.6766
1595636614.297887,169,0,0,1595636613.999899,1.370493736035993,103.8493519705093,12.04454,-1,324.36054738165,51.2360954284668,48.00724964208526,-9999,294390.44051275,0.041259765625,0.00439453125,-1.002105712890625,294387.38013,0,11.96178,100.6766
1595636614.33772,170,0,0,1595636613.999899,1.370493736035993,103.8493519705093,12.04454,-1,324.36054738165,51.2360954284668,48.00724964208526,-9999,294390.48042875,0.0429840087890625,0.003204345703125,-1.002899169921875,294387.38013,0,11.96178,100.6766
1595636614.384833,171,0,0,1595636613.999899,1.370493736035993,103.8493519705093,12.04454,-1,324.36054738165,51.2360954284668,48.00724964208526,-9999,294390.52034375,0.0420684814453125,0.0047607421875,-1.007034301757812,294387.38013,0,11.96178,100.6766
1595636614.41764,172,0,0,1595636613.999899,1.370493736035993,103.8493519705093,12.04454,-1,324.36054738165,51.2360954284668,48.00724964208526,-9999,294390.56025975,0.0419921875,0.0081787109375,-1.0057373046875,294387.38013,0,11.96178,100.6766
1595636614.457572,173,0,0,1595636613.999899,1.370493736035993,103.8493519705093,12.04454,-1,324.36054738165,51.2360954284668,48.00724964208526,-9999,294390.60017475,0.042449951171875,0.0073394775390625,-1.009918212890625,294387.38013,0,11.96178,100.6766
1595636614.506684,174,0,0,1595636613.999899,1.370493736035993,103.8493519705093,12.04454,-1,324.36054738165,51.2360954284668,48.00724964208526,-9999,294390.64009075,0.0424041748046875,0.0116119384765625,-1.007904052734375,294387.38013,0,11.96178,100.6766
1595636614.537223,175,0,0,1595636613.999899,1.370493736035993,103.8493519705093,12.04454,-1,324.36054738165,51.2360954284668,48.00724964208526,-9999,294390.68000675,0.0413970947265625,0.0080413818359375,-1.009140014648438,294387.38013,0,11.96178,100.6766
1595636614.577123,176,0,0,1595636613.999899,1.370493736035993,103.8493519705093,12.04454,-1,324.36054738165,51.2360954284668,48.00724964208526,-9999,294390.71992175,0.041839599609375,0.011138916015625,-1.003250122070312,294387.38013,0,11.96178,100.6766
1595636614.624237,177,0,0,1595636613.999899,1.370493736035993,103.8493519705093,12.04454,-1,324.36054738165,51.2360954284668,48.00724964208526,-9999,294390.75983775,0.0394134521484375,0.010498046875,-1.007125854492188,294387.38013,0,11.96178,100.6766
1595636614.656872,178,0,0,1595636613.999899,1.370493736035993,103.8493519705093,12.04454,-1,324.36054738165,51.2360954284668,48.00724964208526,-9999,294390.79975275,0.040771484375,0.009368896484375,-1.000289916992188,294388.335231,0,11.9565,100.6767
1595636614.697171,179,0,0,1595636613.999899,1.370493736035993,103.8493519705093,12.04454,-1,324.36054738165,51.2360954284668,48.00724964208526,-9999,294390.83966875,0.039520263671875,0.00933837890625,-1.004287719726562,294388.335231,0,11.9565,100.6767
1595636614.748838,180,0,0,1595636613.999899,1.370493736035993,103.8493519705093,12.04454,-1,324.36054738165,51.2360954284668,48.00724964208526,-9999,294390.87958475,0.040252685546875,0.011199951171875,-1.00518798828125,294388.335231,0,11.9565,100.6767
1595636614.776726,181,0,0,1595636613.999899,1.370493736035993,103.8493519705093,12.04454,-1,324.36054738165,51.2360954284668,48.00724964208526,-9999,294390.91949975,0.040252685546875,0.0071868896484375,-0.9986419677734375,294388.335231,0,11.9565,100.6767
1595636614.816667,182,0,0,1595636613.999899,1.370493736035993,103.8493519705093,12.04454,-1,324.36054738165,51.2360954284668,48.00724964208526,-9999,294390.95941575,0.0426025390625,0.0063323974609375,-0.9971160888671875,294388.335231,0,11.9565,100.6767
1595636614.865543,183,0,0,1595636613.999899,1.370493736035993,103.8493519705093,12.04454,-1,324.36054738165,51.2360954284668,48.00724964208526,-9999,294390.99933075,0.040496826171875,0.0069122314453125,-1.001800537109375,294388.335231,0,11.9565,100.6767
1595636614.896573,184,0,0,1595636613.999899,1.370493736035993,103.8493519705093,12.04454,-1,324.36054738165,51.2360954284668,48.00724964208526,-9999,294391.03924675,0.0425567626953125,0.004547119140625,-1.002716064453125,294388.335231,0,11.9565,100.6767
1595636614.93639,185,0,0,1595636613.999899,1.370493736035993,103.8493519705093,12.04454,-1,324.36054738165,51.2360954284668,48.00724964208526,-9999,294391.07916275,0.0422210693359375,0.0054931640625,-1.005111694335938,294388.335231,0,11.9565,100.6767
1595636614.985908,186,0,0,1595636613.999899,1.370493736035993,103.8493519705093,12.04454,-1,324.36054738165,51.2360954284668,48.00724964208526,-9999,294391.11907775,0.04278564453125,0.0054168701171875,-1.005584716796875,294388.335231,0,11.9565,100.6767
1595636615.01635,187,0,0,1595636613.999899,1.370493736035993,103.8493519705093,12.04454,-1,324.36054738165,51.2360954284668,48.00724964208526,-9999,294391.15899375,0.0417633056640625,0.0048980712890625,-1.007125854492188,294388.335231,0,11.9565,100.6767
1595636615.056204,188,0,0,1595636613.999899,1.370493736035993,103.8493519705093,12.04454,-1,324.36054738165,51.2360954284668,48.00724964208526,-9999,294391.19890875,0.0414276123046875,0.0065765380859375,-1.009201049804688,294388.335231,0,11.9565,100.6767
1595636615.105919,189,0,0,1595636613.999899,1.370493736035993,103.8493519705093,12.04454,-1,324.36054738165,51.2360954284668,48.00724964208526,-9999,294391.23882425,0.04156494140625,0.0066986083984375,-1.005935668945312,294388.335231,0,11.9565,100.6767
1595636615.136033,190,0,0,1595636613.999899,1.370493736035993,103.8493519705093,12.04454,-1,324.36054738165,51.2360954284668,48.00724964208526,-9999,294391.27874025,0.0399322509765625,0.007415771484375,-1.006057739257812,294388.335231,0,11.9565,100.6767
1595636615.175949,191,0,0,1595636614.999895,1.370493736035993,103.8493519705093,12.04454,0,324.36054738165,59.49744415283203,48.00724964208526,-9999,294391.31865525,0.0405120849609375,0.0073699951171875,-1.004425048828125,294388.335231,0,11.9565,100.6767
1595636615.22532,192,0,0,1595636614.999895,1.370493736035993,103.8493519705093,12.04454,0,324.36054738165,59.49744415283203,48.00724964208526,-9999,294391.35857125,0.038055419921875,0.0085601806640625,-1.004562377929688,294388.335231,0,11.9565,100.6767
1595636615.255915,193,0,0,1595636614.999895,1.370493736035993,103.8493519705093,12.04454,0,324.36054738165,59.49744415283203,48.00724964208526,-9999,294391.39848625,0.0387420654296875,0.0071258544921875,-1.000625610351562,294388.335231,0,11.9565,100.6767
1595636615.295731,194,0,0,1595636614.999895,1.370493736035993,103.8493519705093,12.04454,0,324.36054738165,59.49744415283203,48.00724964208526,-9999,294391.43840225,0.039520263671875,0.0066986083984375,-1.002456665039062,294388.335231,0,11.9565,100.6767
1595636615.346102,195,0,0,1595636614.999895,1.370493736035993,103.8493519705093,12.04454,0,324.36054738165,59.49744415283203,48.00724964208526,-9999,294391.47831725,0.0396881103515625,0.0067138671875,-1.003067016601562,294388.335231,0,11.9565,100.6767
1595636615.375596,196,0,0,1595636614.999895,1.370493736035993,103.8493519705093,12.04454,0,324.36054738165,59.49744415283203,48.00724964208526,-9999,294391.51823325,0.0406646728515625,0.007080078125,-0.9987335205078125,294388.335231,0,11.9565,100.6767
1595636615.415431,197,0,0,1595636614.999895,1.370493736035993,103.8493519705093,12.04454,0,324.36054738165,59.49744415283203,48.00724964208526,-9999,294391.55814925,0.0418853759765625,0.007171630859375,-0.9990081787109375,294388.335231,0,11.9565,100.6767
1595636615.465863,198,0,0,1595636614.999895,1.370493736035993,103.8493519705093,12.04454,0,324.36054738165,59.49744415283203,48.00724964208526,-9999,294391.59806425,0.0418243408203125,0.0057373046875,-0.9990081787109375,294388.335231,0,11.9565,100.6767
1595636615.495558,199,0,0,1595636614.999895,1.370493736035993,103.8493519705093,12.04454,0,324.36054738165,59.49744415283203,48.00724964208526,-9999,294391.63798025,0.0428314208984375,0.007659912109375,-0.9998931884765625,294388.335231,0,11.9565,100.6767
1595636615.535466,200,0,0,1595636614.999895,1.370493736035993,103.8493519705093,12.04454,0,324.36054738165,59.49744415283203,48.00724964208526,-9999,294391.67789525,0.0419921875,0.0079803466796875,-1.004241943359375,294388.335231,0,11.9565,100.6767
1595636615.58616,201,0,0,1595636614.999895,1.370493736035993,103.8493519705093,12.04454,0,324.36054738165,59.49744415283203,48.00724964208526,-9999,294391.71781125,0.042449951171875,0.0079193115234375,-1.007736206054688,294388.335231,0,11.9565,100.6767
1595636615.615064,202,0,0,1595636614.999895,1.370493736035993,103.8493519705093,12.04454,0,324.36054738165,59.49744415283203,48.00724964208526,-9999,294391.75772725,0.040771484375,0.0088653564453125,-1.007522583007812,294389.290207,0,11.90365,100.6773
1595636615.65483,203,0,0,1595636614.999895,1.370493736035993,103.8493519705093,12.04454,0,324.36054738165,59.49744415283203,48.00724964208526,-9999,294391.79764225,0.041229248046875,0.0088348388671875,-1.008041381835938,294389.290207,0,11.90365,100.6773
1595636615.706448,204,0,0,1595636614.999895,1.370493736035993,103.8493519705093,12.04454,0,324.36054738165,59.49744415283203,48.00724964208526,-9999,294391.83755825,0.0414886474609375,0.0087127685546875,-1.007431030273438,294389.290207,0,11.90365,100.6773
1595636615.734793,205,0,0,1595636614.999895,1.370493736035993,103.8493519705093,12.04454,0,324.36054738165,59.49744415283203,48.00724964208526,-9999,294391.87747325,0.039825439453125,0.0087738037109375,-1.008544921875,294389.290207,0,11.90365,100.6773
1595636615.774601,206,0,0,1595636614.999895,1.370493736035993,103.8493519705093,12.04454,0,324.36054738165,59.49744415283203,48.00724964208526,-9999,294391.91738925,0.0399322509765625,0.007843017578125,-1.00567626953125,294389.290207,0,11.90365,100.6773
1595636615.826802,207,0,0,1595636614.999895,1.370493736035993,103.8493519705093,12.04454,0,324.36054738165,59.49744415283203,48.00724964208526,-9999,294391.95730525,0.0395355224609375,0.0077972412109375,-1.005599975585938,294389.290207,0,11.90365,100.6773
1595636615.854496,208,0,0,1595636614.999895,1.370493736035993,103.8493519705093,12.04454,0,324.36054738165,59.49744415283203,48.00724964208526,-9999,294391.99722025,0.040191650390625,0.0068206787109375,-1.003250122070312,294389.290207,0,11.90365,100.6773
1595636615.894381,209,0,0,1595636614.999895,1.370493736035993,103.8493519705093,12.04454,0,324.36054738165,59.49744415283203,48.00724964208526,-9999,294392.03713625,0.040252685546875,0.006683349609375,-0.9988250732421875,294389.290207,0,11.90365,100.6773
1595636615.944759,210,0,0,1595636614.999895,1.370493736035993,103.8493519705093,12.04454,0,324.36054738165,59.49744415283203,48.00724964208526,-9999,294392.07705125,0.040618896484375,0.004852294921875,-0.999603271484375,294389.290207,0,11.90365,100.6773
1595636615.974276,211,0,0,1595636614.999895,1.370493736035993,103.8493519705093,12.04454,0,324.36054738165,59.49744415283203,48.00724964208526,-9999,294392.11696725,0.041290283203125,0.0040740966796875,-1.000823974609375,294389.290207,0,11.90365,100.6773
1595636616.014136,212,0,0,1595636614.999895,1.370493736035993,103.8493519705093,12.04454,0,324.36054738165,59.49744415283203,48.00724964208526,-9999,294392.15688225,0.041900634765625,0.0040283203125,-1.000885009765625,294389.290207,0,11.90365,100.6773
1595636616.065075,213,0,0,1595636614.999895,1.370493736035993,103.8493519705093,12.04454,0,324.36054738165,59.49744415283203,48.00724964208526,-9999,294392.19679825,0.0421905517578125,0.0052337646484375,-1.000640869140625,294389.290207,0,11.90365,100.6773
1595636616.09384,214,0,0,1595636614.999895,1.370493736035993,103.8493519705093,12.04454,0,324.36054738165,59.49744415283203,48.00724964208526,-9999,294392.2367155,0.041595458984375,0.006256103515625,-1.003814697265625,294389.290207,0,11.90365,100.6773
1595636616.133768,215,0,0,1595636614.999895,1.370493736035993,103.8493519705093,12.04454,0,324.36054738165,59.49744415283203,48.00724964208526,-9999,294392.2766305,0.0413818359375,0.00653076171875,-1.005783081054688,294389.290207,0,11.90365,100.6773
1595636616.185717,216,0,0,1595636615.999892,1.370493736035993,103.8493519705093,12.04454,0,324.36054738165,57.26631927490234,32.00483309472351,-9999,294392.3165465,0.0413055419921875,0.007720947265625,-1.006332397460938,294389.290207,0,11.90365,100.6773
1595636616.214074,217,0,0,1595636615.999892,1.370493736035993,103.8493519705093,12.04454,0,324.36054738165,57.26631927490234,32.00483309472351,-9999,294392.3564615,0.0411529541015625,0.0075531005859375,-1.007461547851562,294389.290207,0,11.90365,100.6773
1595636616.253587,218,0,0,1595636615.999892,1.370493736035993,103.8493519705093,12.04454,0,324.36054738165,57.26631927490234,32.00483309472351,-9999,294392.3963775,0.0400848388671875,0.009124755859375,-1.006271362304688,294389.290207,0,11.90365,100.6773
1595636616.307004,219,0,0,1595636615.999892,1.370493736035993,103.8493519705093,12.04454,0,324.36054738165,57.26631927490234,32.00483309472351,-9999,294392.4362935,0.039794921875,0.009490966796875,-1.005203247070312,294389.290207,0,11.90365,100.6773
1595636616.33349,220,0,0,1595636615.999892,1.370493736035993,103.8493519705093,12.04454,0,324.36054738165,57.26631927490234,32.00483309472351,-9999,294392.4762085,0.03961181640625,0.00982666015625,-1.004501342773438,294389.290207,0,11.90365,100.6773
1595636616.373339,221,0,0,1595636615.999892,1.370493736035993,103.8493519705093,12.04454,0,324.36054738165,57.26631927490234,32.00483309472351,-9999,294392.5161245,0.03936767578125,0.00927734375,-1.003341674804688,294389.290207,0,11.90365,100.6773
1595636616.426705,222,0,0,1595636615.999892,1.370493736035993,103.8493519705093,12.04454,0,324.36054738165,57.26631927490234,32.00483309472351,-9999,294392.5560395,0.0394439697265625,0.007354736328125,-1.004150390625,294389.290207,0,11.90365,100.6773
1595636616.453291,223,0,0,1595636615.999892,1.370493736035993,103.8493519705093,12.04454,0,324.36054738165,57.26631927490234,32.00483309472351,-9999,294392.5959555,0.03961181640625,0.008056640625,-1.00384521484375,294389.290207,0,11.90365,100.6773
1595636616.493027,224,0,0,1595636615.999892,1.370493736035993,103.8493519705093,12.04454,0,324.36054738165,57.26631927490234,32.00483309472351,-9999,294392.6358705,0.04034423828125,0.007537841796875,-1.003448486328125,294389.290207,0,11.90365,100.6773
1595636616.546022,225,0,0,1595636615.999892,1.370493736035993,103.8493519705093,12.04454,0,324.36054738165,57.26631927490234,32.00483309472351,-9999,294392.6757865,0.040863037109375,0.0062408447265625,-1.002914428710938,294389.290207,0,11.90365,100.6773
1595636616.573,226,0,0,1595636615.999892,1.370493736035993,103.8493519705093,12.04454,0,324.36054738165,57.26631927490234,32.00483309472351,-9999,294392.7157025,0.0416107177734375,0.0067138671875,-1.001541137695312,294390.245351,0,11.69226,100.6799
1595636616.612905,227,0,0,1595636615.999892,1.370493736035993,103.8493519705093,12.04454,0,324.36054738165,57.26631927490234,32.00483309472351,-9999,294392.7556175,0.040374755859375,0.006561279296875,-1.002365112304688,294390.245351,0,11.69226,100.6799
1595636616.666106,228,0,0,1595636615.999892,1.370493736035993,103.8493519705093,12.04454,0,324.36054738165,57.26631927490234,32.00483309472351,-9999,294392.7955335,0.0414581298828125,0.0062408447265625,-1.00335693359375,294390.245351,0,11.69226,100.6799
1595636616.692697,229,0,0,1595636615.999892,1.370493736035993,103.8493519705093,12.04454,0,324.36054738165,57.26631927490234,32.00483309472351,-9999,294392.8354485,0.0413970947265625,0.00689697265625,-1.003265380859375,294390.245351,0,11.69226,100.6799
1595636616.732573,230,0,0,1595636615.999892,1.370493736035993,103.8493519705093,12.04454,0,324.36054738165,57.26631927490234,32.00483309472351,-9999,294392.8753645,0.040740966796875,0.0079803466796875,-1.005783081054688,294390.245351,0,11.69226,100.6799
1595636616.7853,231,0,0,1595636615.999892,1.370493736035993,103.8493519705093,12.04454,0,324.36054738165,57.26631927490234,32.00483309472351,-9999,294392.9152795,0.04095458984375,0.0065460205078125,-1.005508422851562,294390.245351,0,11.69226,100.6799
1595636616.812474,232,0,0,1595636615.999892,1.370493736035993,103.8493519705093,12.04454,0,324.36054738165,57.26631927490234,32.00483309472351,-9999,294392.9551955,0.0396881103515625,0.007354736328125,-1.006423950195312,294390.245351,0,11.69226,100.6799
1595636616.852646,233,0,0,1595636615.999892,1.370493736035993,103.8493519705093,12.04454,0,324.36054738165,57.26631927490234,32.00483309472351,-9999,294392.9951115,0.040557861328125,0.0080413818359375,-1.005828857421875,294390.245351,0,11.69226,100.6799
1595636616.906176,234,0,0,1595636615.999892,1.370493736035993,103.8493519705093,12.04454,0,324.36054738165,57.26631927490234,32.00483309472351,-9999,294393.0350265,0.0406341552734375,0.0081787109375,-1.005142211914062,294390.245351,0,11.69226,100.6799
1595636616.932243,235,0,0,1595636615.999892,1.370493736035993,103.8493519705093,12.04454,0,324.36054738165,57.26631927490234,32.00483309472351,-9999,294393.0749425,0.0399169921875,0.0070648193359375,-1.004135131835938,294390.245351,0,11.69226,100.6799
1595636616.972026,236,0,0,1595636615.999892,1.370493736035993,103.8493519705093,12.04454,0,324.36054738165,57.26631927490234,32.00483309472351,-9999,294393.1148575,0.040435791015625,0.0065765380859375,-1.00201416015625,294390.245351,0,11.69226,100.6799
1595636617.026845,237,0,0,1595636615.999892,1.370493736035993,103.8493519705093,12.04454,0,324.36054738165,57.26631927490234,32.00483309472351,-9999,294393.1547735,0.0404052734375,0.00579833984375,-1.00164794921875,294390.245351,0,11.69226,100.6799
1595636617.051989,238,0,0,1595636615.999892,1.370493736035993,103.8493519705093,12.04454,0,324.36054738165,57.26631927490234,32.00483309472351,-9999,294393.1946885,0.04095458984375,0.005828857421875,-1.001510620117188,294390.245351,0,11.69226,100.6799
1595636617.091892,239,0,0,1595636615.999892,1.370493736035993,103.8493519705093,12.04454,0,324.36054738165,57.26631927490234,32.00483309472351,-9999,294393.234603875,0.0419921875,0.0054473876953125,-1.001632690429688,294390.245351,0,11.69226,100.6799
1595636617.147829,240,0,0,1595636615.999892,1.370493736035993,103.8493519705093,12.04454,0,324.36054738165,57.26631927490234,32.00483309472351,-9999,294393.274519875,0.0420379638671875,0.0052490234375,-1.00067138671875,294390.245351,0,11.69226,100.6799
1595636617.171673,241,0,0,1595636616.999889,1.370493736035993,103.8493519705093,12.04454,-1,324.36054738165,43.41005706787109,32.00483309472351,-9999,294393.314434875,0.0423431396484375,0.0062408447265625,-1.002334594726562,294390.245351,0,11.69226,100.6799
1595636617.211569,242,0,0,1595636616.999889,1.370493736035993,103.8493519705093,12.04454,-1,324.36054738165,43.41005706787109,32.00483309472351,-9999,294393.354350875,0.0418243408203125,0.0063629150390625,-1.003341674804688,294390.245351,0,11.69226,100.6799
1595636617.26547,243,0,0,1595636616.999889,1.370493736035993,103.8493519705093,12.04454,-1,324.36054738165,43.41005706787109,32.00483309472351,-9999,294393.394265875,0.0411376953125,0.0080108642578125,-1.004562377929688,294390.245351,0,11.69226,100.6799
1595636617.29151,244,0,0,1595636616.999889,1.370493736035993,103.8493519705093,12.04454,-1,324.36054738165,43.41005706787109,32.00483309472351,-9999,294393.434181875,0.03997802734375,0.0096588134765625,-1.005447387695312,294390.245351,0,11.69226,100.6799
1595636617.331332,245,0,0,1595636616.999889,1.370493736035993,103.8493519705093,12.04454,-1,324.36054738165,43.41005706787109,32.00483309472351,-9999,294393.474096875,0.0395355224609375,0.0096893310546875,-1.0054931640625,294390.245351,0,11.69226,100.6799
1595636617.385357,246,0,0,1595636616.999889,1.370493736035993,103.8493519705093,12.04454,-1,324.36054738165,43.41005706787109,32.00483309472351,-9999,294393.514012875,0.0387420654296875,0.009185791015625,-1.005615234375,294390.245351,0,11.69226,100.6799
1595636617.411084,247,0,0,1595636616.999889,1.370493736035993,103.8493519705093,12.04454,-1,324.36054738165,43.41005706787109,32.00483309472351,-9999,294393.553928875,0.03875732421875,0.0095367431640625,-1.005218505859375,294390.245351,0,11.69226,100.6799
1595636617.451067,248,0,0,1595636616.999889,1.370493736035993,103.8493519705093,12.04454,-1,324.36054738165,43.41005706787109,32.00483309472351,-9999,294393.593843875,0.0390777587890625,0.0091705322265625,-1.003890991210938,294390.245351,0,11.69226,100.6799
1595636617.506026,249,0,0,1595636616.999889,1.370493736035993,103.8493519705093,12.04454,-1,324.36054738165,43.41005706787109,32.00483309472351,-9999,294393.633759875,0.0389556884765625,0.007537841796875,-1.003509521484375,294390.245351,0,11.69226,100.6799
1595636617.531078,250,0,0,1595636616.999889,1.370493736035993,103.8493519705093,12.04454,-1,324.36054738165,43.41005706787109,32.00483309472351,-9999,294393.673674875,0.0402069091796875,0.00701904296875,-1.002349853515625,294391.200518,0,11.41747,100.6832
1595636617.570768,251,0,0,1595636616.999889,1.370493736035993,103.8493519705093,12.04454,-1,324.36054738165,43.41005706787109,32.00483309472351,-9999,294393.713590875,0.03985595703125,0.006134033203125,-1.003509521484375,294391.200518,0,11.41747,100.6832
1595636617.624725,252,0,0,1595636616.999889,1.370493736035993,103.8493519705093,12.04454,-1,324.36054738165,43.41005706787109,32.00483309472351,-9999,294393.753505875,0.040863037109375,0.006072998046875,-1.003585815429688,294391.200518,0,11.41747,100.6832
1595636617.651063,253,0,0,1595636616.999889,1.370493736035993,103.8493519705093,12.04454,-1,324.36054738165,43.41005706787109,32.00483309472351,-9999,294393.793421875,0.0416107177734375,0.0050506591796875,-1.003982543945312,294391.200518,0,11.41747,100.6832
1595636617.690808,254,0,0,1595636616.999889,1.370493736035993,103.8493519705093,12.04454,-1,324.36054738165,43.41005706787109,32.00483309472351,-9999,294393.833337875,0.0427093505859375,0.00439453125,-1.003997802734375,294391.200518,0,11.41747,100.6832
1595636617.744329,255,0,0,1595636616.999889,1.370493736035993,103.8493519705093,12.04454,-1,324.36054738165,43.41005706787109,32.00483309472351,-9999,294393.873252875,0.04278564453125,0.004425048828125,-1.003646850585938,294391.200518,0,11.41747,100.6832
1595636617.770449,256,0,0,1595636616.999889,1.370493736035993,103.8493519705093,12.04454,-1,324.36054738165,43.41005706787109,32.00483309472351,-9999,294393.913168875,0.042022705078125,0.0053253173828125,-1.00177001953125,294391.200518,0,11.41747,100.6832
1595636617.810349,257,0,0,1595636616.999889,1.370493736035993,103.8493519705093,12.04454,-1,324.36054738165,43.41005706787109,32.00483309472351,-9999,294393.953083875,0.04119873046875,0.0052032470703125,-1.003662109375,294391.200518,0,11.41747,100.6832
1595636617.865537,258,0,0,1595636616.999889,1.370493736035993,103.8493519705093,12.04454,-1,324.36054738165,43.41005706787109,32.00483309472351,-9999,294393.992999875,0.0410003662109375,0.006744384765625,-1.004440307617188,294391.200518,0,11.41747,100.6832
1595636617.890216,259,0,0,1595636616.999889,1.370493736035993,103.8493519705093,12.04454,-1,324.36054738165,43.41005706787109,32.00483309472351,-9999,294394.032914875,0.040008544921875,0.0077972412109375,-1.005111694335938,294391.200518,0,11.41747,100.6832
1595636617.930019,260,0,0,1595636616.999889,1.370493736035993,103.8493519705093,12.04454,-1,324.36054738165,43.41005706787109,32.00483309472351,-9999,294394.072830875,0.038818359375,0.0089111328125,-1.00439453125,294391.200518,0,11.41747,100.6832
1595636617.984992,261,0,0,1595636616.999889,1.370493736035993,103.8493519705093,12.04454,-1,324.36054738165,43.41005706787109,32.00483309472351,-9999,294394.112746875,0.0391693115234375,0.009765625,-1.004425048828125,294391.200518,0,11.41747,100.6832
1595636618.009967,262,0,0,1595636616.999889,1.370493736035993,103.8493519705093,12.04454,-1,324.36054738165,43.41005706787109,32.00483309472351,-9999,294394.152661875,0.0400848388671875,0.0095367431640625,-1.002822875976562,294391.200518,0,11.41747,100.6832
1595636618.049805,263,0,0,1595636616.999889,1.370493736035993,103.8493519705093,12.04454,-1,324.36054738165,43.41005706787109,32.00483309472351,-9999,294394.192577875,0.039459228515625,0.00848388671875,-1.001815795898438,294391.200518,0,11.41747,100.6832
1595636618.107327,264,0,0,1595636616.999889,1.370493736035993,103.8493519705093,12.04454,-1,324.36054738165,43.41005706787109,32.00483309472351,-9999,294394.232492625,0.0388031005859375,0.007171630859375,-1.000396728515625,294391.200518,0,11.41747,100.6832
1595636618.129739,265,0,0,1595636616.999889,1.370493736035993,103.8493519705093,12.04454,-1,324.36054738165,43.41005706787109,32.00483309472351,-9999,294394.272408625,0.0392608642578125,0.00738525390625,-1.000930786132812,294391.200518,0,11.41747,100.6832
1595636618.169443,266,0,0,1595636616.999889,1.370493736035993,103.8493519705093,12.04454,-1,324.36054738165,43.41005706787109,32.00483309472351,-9999,294394.312323625,0.040496826171875,0.007049560546875,-0.9990997314453125,294391.200518,0,11.41747,100.6832
1595636618.223349,267,0,0,1595636617.999885,1.370493736035993,103.8493519705093,12.04454,0,324.36054738165,49.1962890625,32.00483309472351,-9999,294394.352239625,0.04095458984375,0.006500244140625,-0.999908447265625,294391.200518,0,11.41747,100.6832
1595636618.249419,268,0,0,1595636617.999885,1.370493736035993,103.8493519705093,12.04454,0,324.36054738165,49.1962890625,32.00483309472351,-9999,294394.392154625,0.0423583984375,0.0059661865234375,-1.003524780273438,294391.200518,0,11.41747,100.6832
1595636618.289291,269,0,0,1595636617.999885,1.370493736035993,103.8493519705093,12.04454,0,324.36054738165,49.1962890625,32.00483309472351,-9999,294394.432070625,0.0430145263671875,0.0055389404296875,-1.006027221679688,294391.200518,0,11.41747,100.6832
1595636618.348249,270,0,0,1595636617.999885,1.370493736035993,103.8493519705093,12.04454,0,324.36054738165,49.1962890625,32.00483309472351,-9999,294394.471986625,0.0426025390625,0.00592041015625,-1.006195068359375,294391.200518,0,11.41747,100.6832
1595636618.369378,271,0,0,1595636617.999885,1.370493736035993,103.8493519705093,12.04454,0,324.36054738165,49.1962890625,32.00483309472351,-9999,294394.511901625,0.0424957275390625,0.006805419921875,-1.00799560546875,294391.200518,0,11.41747,100.6832
1595636618.409028,272,0,0,1595636617.999885,1.370493736035993,103.8493519705093,12.04454,0,324.36054738165,49.1962890625,32.00483309472351,-9999,294394.551817625,0.0411376953125,0.0070037841796875,-1.008407592773438,294391.200518,0,11.41747,100.6832
1595636618.466405,273,0,0,1595636617.999885,1.370493736035993,103.8493519705093,12.04454,0,324.36054738165,49.1962890625,32.00483309472351,-9999,294394.591732625,0.04095458984375,0.0084381103515625,-1.007843017578125,294391.200518,0,11.41747,100.6832
1595636618.488916,274,0,0,1595636617.999885,1.370493736035993,103.8493519705093,12.04454,0,324.36054738165,49.1962890625,32.00483309472351,-9999,294394.631648625,0.03973388671875,0.0082855224609375,-1.006072998046875,294392.155721,0,11.12681,100.6866
1595636618.52871,275,0,0,1595636617.999885,1.370493736035993,103.8493519705093,12.04454,0,324.36054738165,49.1962890625,32.00483309472351,-9999,294394.671563625,0.038238525390625,0.008636474609375,-1.004501342773438,294392.155721,0,11.12681,100.6866
1595636618.584333,276,0,0,1595636617.999885,1.370493736035993,103.8493519705093,12.04454,0,324.36054738165,49.1962890625,32.00483309472351,-9999,294394.711479625,0.0382537841796875,0.0095062255859375,-1.004318237304688,294392.155721,0,11.12681,100.6866
1595636618.60865,277,0,0,1595636617.999885,1.370493736035993,103.8493519705093,12.04454,0,324.36054738165,49.1962890625,32.00483309472351,-9999,294394.751394625,0.0382537841796875,0.0074615478515625,-1.000579833984375,294392.155721,0,11.12681,100.6866
1595636618.648506,278,0,0,1595636617.999885,1.370493736035993,103.8493519705093,12.04454,0,324.36054738165,49.1962890625,32.00483309472351,-9999,294394.791310625,0.03900146484375,0.0068206787109375,-1.001815795898438,294392.155721,0,11.12681,100.6866
1595636618.704937,279,0,0,1595636617.999885,1.370493736035993,103.8493519705093,12.04454,0,324.36054738165,49.1962890625,32.00483309472351,-9999,294394.831226625,0.0394744873046875,0.0068817138671875,-0.9998779296875,294392.155721,0,11.12681,100.6866
1595636618.728339,280,0,0,1595636617.999885,1.370493736035993,103.8493519705093,12.04454,0,324.36054738165,49.1962890625,32.00483309472351,-9999,294394.871141625,0.0408782958984375,0.0061187744140625,-1.000442504882812,294392.155721,0,11.12681,100.6866
1595636618.76824,281,0,0,1595636617.999885,1.370493736035993,103.8493519705093,12.04454,0,324.36054738165,49.1962890625,32.00483309472351,-9999,294394.911057625,0.0418548583984375,0.0048828125,-1.001739501953125,294392.155721,0,11.12681,100.6866
1595636618.826395,282,0,0,1595636617.999885,1.370493736035993,103.8493519705093,12.04454,0,324.36054738165,49.1962890625,32.00483309472351,-9999,294394.950972625,0.04144287109375,0.004791259765625,-1.004043579101562,294392.155721,0,11.12681,100.6866
1595636618.848142,283,0,0,1595636617.999885,1.370493736035993,103.8493519705093,12.04454,0,324.36054738165,49.1962890625,32.00483309472351,-9999,294394.990888625,0.042266845703125,0.0049896240234375,-1.003936767578125,294392.155721,0,11.12681,100.6866
1595636618.887955,284,0,0,1595636617.999885,1.370493736035993,103.8493519705093,12.04454,0,324.36054738165,49.1962890625,32.00483309472351,-9999,294395.030803625,0.0416412353515625,0.0059356689453125,-1.004837036132812,294392.155721,0,11.12681,100.6866
1595636618.945703,285,0,0,1595636617.999885,1.370493736035993,103.8493519705093,12.04454,0,324.36054738165,49.1962890625,32.00483309472351,-9999,294395.070719625,0.0424041748046875,0.0067138671875,-1.005630493164062,294392.155721,0,11.12681,100.6866
1595636618.967903,286,0,0,1595636617.999885,1.370493736035993,103.8493519705093,12.04454,0,324.36054738165,49.1962890625,32.00483309472351,-9999,294395.110634625,0.0419464111328125,0.00775146484375,-1.00653076171875,294392.155721,0,11.12681,100.6866
1595636619.007746,287,0,0,1595636617.999885,1.370493736035993,103.8493519705093,12.04454,0,324.36054738165,49.1962890625,32.00483309472351,-9999,294395.150550625,0.0418701171875,0.0087432861328125,-1.004974365234375,294392.155721,0,11.12681,100.6866
1595636619.06545,288,0,0,1595636617.999885,1.370493736035993,103.8493519705093,12.04454,0,324.36054738165,49.1962890625,32.00483309472351,-9999,294395.190466625,0.0411224365234375,0.008636474609375,-1.005569458007812,294392.155721,0,11.12681,100.6866
1595636619.087717,289,0,0,1595636617.999885,1.370493736035993,103.8493519705093,12.04454,0,324.36054738165,49.1962890625,32.00483309472351,-9999,294395.230382375,0.0405120849609375,0.0093536376953125,-1.004348754882812,294392.155721,0,11.12681,100.6866
1595636619.127449,290,0,0,1595636617.999885,1.370493736035993,103.8493519705093,12.04454,0,324.36054738165,49.1962890625,32.00483309472351,-9999,294395.270298375,0.0391845703125,0.0109405517578125,-1.003433227539062,294392.155721,0,11.12681,100.6866
1595636619.185494,291,0,0,1595636618.999881,1.370493736035993,103.8493519705093,12.04454,-1,324.36054738165,85.98405456542969,32.00483309472351,-9999,294395.310213375,0.0392608642578125,0.0095672607421875,-1.0018310546875,294392.155721,0,11.12681,100.6866
1595636619.207748,292,0,0,1595636618.999881,1.370493736035993,103.8493519705093,12.04454,-1,324.36054738165,85.98405456542969,32.00483309472351,-9999,294395.350129375,0.038299560546875,0.0072174072265625,-1.00213623046875,294392.155721,0,11.12681,100.6866
1595636619.247643,293,0,0,1595636618.999881,1.370493736035993,103.8493519705093,12.04454,-1,324.36054738165,85.98405456542969,32.00483309472351,-9999,294395.390044375,0.0381622314453125,0.005767822265625,-1.001510620117188,294392.155721,0,11.12681,100.6866
1595636619.305571,294,0,0,1595636618.999881,1.370493736035993,103.8493519705093,12.04454,-1,324.36054738165,85.98405456542969,32.00483309472351,-9999,294395.429960375,0.0388031005859375,0.0062255859375,-0.9987945556640625,294392.155721,0,11.12681,100.6866
1595636619.327135,295,0,0,1595636618.999881,1.370493736035993,103.8493519705093,12.04454,-1,324.36054738165,85.98405456542969,32.00483309472351,-9999,294395.469875375,0.0387420654296875,0.005523681640625,-1.00152587890625,294392.155721,0,11.12681,100.6866
1595636619.366973,296,0,0,1595636618.999881,1.370493736035993,103.8493519705093,12.04454,-1,324.36054738165,85.98405456542969,32.00483309472351,-9999,294395.509791375,0.039794921875,0.0040435791015625,-1.003097534179688,294392.155721,0,11.12681,100.6866
1595636619.423582,297,0,0,1595636618.999881,1.370493736035993,103.8493519705093,12.04454,-1,324.36054738165,85.98405456542969,32.00483309472351,-9999,294395.549707375,0.0401153564453125,0.00537109375,-1.004440307617188,294392.155721,0,11.12681,100.6866
1595636619.446893,298,0,0,1595636618.999881,1.370493736035993,103.8493519705093,12.04454,-1,324.36054738165,85.98405456542969,32.00483309472351,-9999,294395.589622375,0.0409393310546875,0.0052490234375,-1.005783081054688,294393.110954,0,10.84408,100.69
1595636619.486707,299,0,0,1595636618.999881,1.370493736035993,103.8493519705093,12.04454,-1,324.36054738165,85.98405456542969,32.00483309472351,-9999,294395.629538375,0.0396575927734375,0.00677490234375,-1.007156372070312,294393.110954,0,10.84408,100.69
1595636619.526728,300,0,0,1595636618.999881,1.370493736035993,103.8493519705093,12.04454,-1,324.36054738165,85.98405456542969,32.00483309472351,-9999,294395.669453375,0.0415496826171875,0.0068511962890625,-1.008148193359375,294393.110954,0,10.84408,100.69
1595636619.566674,301,0,0,1595636618.999881,1.370493736035993,103.8493519705093,12.04454,-1,324.36054738165,85.98405456542969,32.00483309472351,-9999,294395.709369375,0.0405731201171875,0.00732421875,-1.006759643554688,294393.110954,0,10.84408,100.69
1595636619.606515,302,0,0,1595636618.999881,1.370493736035993,103.8493519705093,12.04454,-1,324.36054738165,85.98405456542969,32.00483309472351,-9999,294395.749284375,0.0398101806640625,0.00628662109375,-1.007110595703125,294393.110954,0,10.84408,100.69
1595636619.647226,303,0,0,1595636618.999881,1.370493736035993,103.8493519705093,12.04454,-1,324.36054738165,85.98405456542969,32.00483309472351,-9999,294395.789200375,0.0394134521484375,0.005645751953125,-1.004531860351562,294393.110954,0,10.84408,100.69
1595636619.686303,304,0,0,1595636618.999881,1.370493736035993,103.8493519705093,12.04454,-1,324.36054738165,85.98405456542969,32.00483309472351,-9999,294395.829115375,0.0386810302734375,0.0050201416015625,-1.0032958984375,294393.110954,0,10.84408,100.69
1595636619.726187,305,0,0,1595636618.999881,1.370493736035993,103.8493519705093,12.04454,-1,324.36054738165,85.98405456542969,32.00483309472351,-9999,294395.869031375,0.040008544921875,0.002105712890625,-1.001419067382812,294393.110954,0,10.84408,100.69
1595636619.766961,306,0,0,1595636618.999881,1.370493736035993,103.8493519705093,12.04454,-1,324.36054738165,85.98405456542969,32.00483309472351,-9999,294395.908947375,0.0399322509765625,0.0003204345703125,-1.000518798828125,294393.110954,0,10.84408,100.69
1595636619.806186,307,0,0,1595636618.999881,1.370493736035993,103.8493519705093,12.04454,-1,324.36054738165,85.98405456542969,32.00483309472351,-9999,294395.948862375,0.0407562255859375,-0.0008392333984375,-0.9992218017578125,294393.110954,0,10.84408,100.69
1595636619.8459,308,0,0,1595636618.999881,1.370493736035993,103.8493519705093,12.04454,-1,324.36054738165,85.98405456542969,32.00483309472351,-9999,294395.988778375,0.0417633056640625,-0.0024261474609375,-0.999969482421875,294393.110954,0,10.84408,100.69
1595636619.886775,309,0,0,1595636618.999881,1.370493736035993,103.8493519705093,12.04454,-1,324.36054738165,85.98405456542969,32.00483309472351,-9999,294396.028693375,0.0428619384765625,-0.0045166015625,-1.000259399414062,294393.110954,0,10.84408,100.69
1595636619.925882,310,0,0,1595636618.999881,1.370493736035993,103.8493519705093,12.04454,-1,324.36054738165,85.98405456542969,32.00483309472351,-9999,294396.068609375,0.042724609375,-0.0077362060546875,-1.001602172851562,294393.110954,0,10.84408,100.69
1595636619.966243,311,0,0,1595636618.999881,1.370493736035993,103.8493519705093,12.04454,-1,324.36054738165,85.98405456542969,32.00483309472351,-9999,294396.108524375,0.0427398681640625,-0.011260986328125,-1.003799438476562,294393.110954,0,10.84408,100.69
1595636620.006794,312,0,0,1595636618.999881,1.370493736035993,103.8493519705093,12.04454,-1,324.36054738165,85.98405456542969,32.00483309472351,-9999,294396.148440375,0.04156494140625,-0.0140380859375,-1.005416870117188,294393.110954,0,10.84408,100.69
1595636620.045663,313,0,0,1595636618.999881,1.370493736035993,103.8493519705093,12.04454,-1,324.36054738165,85.98405456542969,32.00483309472351,-9999,294396.188355375,0.04052734375,-0.0153350830078125,-1.007080078125,294393.110954,0,10.84408,100.69
1595636620.087477,314,0,0,1595636618.999881,1.370493736035993,103.8493519705093,12.04454,-1,324.36054738165,85.98405456542969,32.00483309472351,-9999,294396.2282714167,0.039642333984375,-0.01556396484375,-1.00848388671875,294393.110954,0,10.84408,100.69
1595636620.126926,315,0,0,1595636618.999881,1.370493736035993,103.8493519705093,12.04454,-1,324.36054738165,85.98405456542969,32.00483309472351,-9999,294396.2681864167,0.03924560546875,-0.014495849609375,-1.008926391601562,294393.110954,0,10.84408,100.69
1595636620.165383,316,0,0,1595636618.999881,1.370493736035993,103.8493519705093,12.04454,-1,324.36054738165,85.98405456542969,32.00483309472351,-9999,294396.3081024167,0.038055419921875,-0.0156707763671875,-1.008453369140625,294393.110954,0,10.84408,100.69
1595636620.205241,317,0,0,1595636619.999877,1.370493736035993,103.8493519705093,12.04454,0,324.36054738165,82.21726989746094,32.00483309472351,-9999,294396.3480174167,0.0372161865234375,-0.01885986328125,-1.007598876953125,294393.110954,0,10.84408,100.69
1595636620.247146,318,0,0,1595636619.999877,1.370493736035993,103.8493519705093,12.04454,0,324.36054738165,82.21726989746094,32.00483309472351,-9999,294396.3879334167,0.03753662109375,-0.021148681640625,-1.003997802734375,294393.110954,0,10.84408,100.69
1595636620.285157,319,0,0,1595636619.999877,1.370493736035993,103.8493519705093,12.04454,0,324.36054738165,82.21726989746094,32.00483309472351,-9999,294396.4278494167,0.0375213623046875,-0.0215911865234375,-1.004913330078125,294393.110954,0,10.84408,100.69
1595636620.326033,320,0,0,1595636619.999877,1.370493736035993,103.8493519705093,12.04454,0,324.36054738165,82.21726989746094,32.00483309472351,-9999,294396.4677644167,0.036895751953125,-0.02423095703125,-1.002334594726562,294393.110954,0,10.84408,100.69
1595636620.366786,321,0,0,1595636619.999877,1.370493736035993,103.8493519705093,12.04454,0,324.36054738165,82.21726989746094,32.00483309472351,-9999,294396.5076804167,0.0377349853515625,-0.02728271484375,-1.0010986328125,294393.110954,0,10.84408,100.69
1595636620.405005,322,0,0,1595636619.999877,1.370493736035993,103.8493519705093,12.04454,0,324.36054738165,82.21726989746094,32.00483309472351,-9999,294396.5475954167,0.038177490234375,-0.0350799560546875,-1.0020751953125,294394.066131,0,10.57457,100.6932
1595636620.445687,323,0,0,1595636619.999877,1.370493736035993,103.8493519705093,12.04454,0,324.36054738165,82.21726989746094,32.00483309472351,-9999,294396.5875114167,0.038604736328125,-0.0418548583984375,-1.0028076171875,294394.066131,0,10.57457,100.6932
1595636620.486687,324,0,0,1595636619.999877,1.370493736035993,103.8493519705093,12.04454,0,324.36054738165,82.21726989746094,32.00483309472351,-9999,294396.6274264167,0.0393829345703125,-0.046478271484375,-1.003799438476562,294394.066131,0,10.57457,100.6932
1595636620.524673,325,0,0,1595636619.999877,1.370493736035993,103.8493519705093,12.04454,0,324.36054738165,82.21726989746094,32.00483309472351,-9999,294396.6673424167,0.0394439697265625,-0.051605224609375,-1.007583618164062,294394.066131,0,10.57457,100.6932
1595636620.56527,326,0,0,1595636619.999877,1.370493736035993,103.8493519705093,12.04454,0,324.36054738165,82.21726989746094,32.00483309472351,-9999,294396.7072574167,0.0400543212890625,-0.0573577880859375,-1.006088256835938,294394.066131,0,10.57457,100.6932
1595636620.606816,327,0,0,1595636619.999877,1.370493736035993,103.8493519705093,12.04454,0,324.36054738165,82.21726989746094,32.00483309472351,-9999,294396.7471734167,0.04022216796875,-0.0579376220703125,-1.007904052734375,294394.066131,0,10.57457,100.6932
1595636620.644723,328,0,0,1595636619.999877,1.370493736035993,103.8493519705093,12.04454,0,324.36054738165,82.21726989746094,32.00483309472351,-9999,294396.7870884167,0.0387420654296875,-0.0599212646484375,-1.008041381835938,294394.066131,0,10.57457,100.6932
1595636620.685539,329,0,0,1595636619.999877,1.370493736035993,103.8493519705093,12.04454,0,324.36054738165,82.21726989746094,32.00483309472351,-9999,294396.8270044167,0.038482666015625,-0.06085205078125,-1.006927490234375,294394.066131,0,10.57457,100.6932
1595636620.724247,330,0,0,1595636619.999877,1.370493736035993,103.8493519705093,12.04454,0,324.36054738165,82.21726989746094,32.00483309472351,-9999,294396.8669204167,0.0381927490234375,-0.0637969970703125,-1.006256103515625,294394.066131,0,10.57457,100.6932
1595636620.764181,331,0,0,1595636619.999877,1.370493736035993,103.8493519705093,12.04454,0,324.36054738165,82.21726989746094,32.00483309472351,-9999,294396.9068354167,0.0382080078125,-0.063720703125,-1.004653930664062,294394.066131,0,10.57457,100.6932
1595636620.804157,332,0,0,1595636619.999877,1.370493736035993,103.8493519705093,12.04454,0,324.36054738165,82.21726989746094,32.00483309472351,-9999,294396.9467514167,0.037841796875,-0.063201904296875,-1.002700805664062,294394.066131,0,10.57457,100.6932
1595636620.843959,333,0,0,1595636619.999877,1.370493736035993,103.8493519705093,12.04454,0,324.36054738165,82.21726989746094,32.00483309472351,-9999,294396.9866664167,0.039306640625,-0.065521240234375,-1.004425048828125,294394.066131,0,10.57457,100.6932
1595636620.883796,334,0,0,1595636619.999877,1.370493736035993,103.8493519705093,12.04454,0,324.36054738165,82.21726989746094,32.00483309472351,-9999,294397.0265824167,0.0390167236328125,-0.066864013671875,-1.002899169921875,294394.066131,0,10.57457,100.6932
1595636620.926618,335,0,0,1595636619.999877,1.370493736035993,103.8493519705093,12.04454,0,324.36054738165,82.21726989746094,32.00483309472351,-9999,294397.0664974167,0.0390472412109375,-0.0674591064453125,-1.003158569335938,294394.066131,0,10.57457,100.6932
1595636620.963649,336,0,0,1595636619.999877,1.370493736035993,103.8493519705093,12.04454,0,324.36054738165,82.21726989746094,32.00483309472351,-9999,294397.1064134167,0.039306640625,-0.07098388671875,-1.001419067382812,294394.066131,0,10.57457,100.6932
1595636621.003669,337,0,0,1595636619.999877,1.370493736035993,103.8493519705093,12.04454,0,324.36054738165,82.21726989746094,32.00483309472351,-9999,294397.1463284167,0.040069580078125,-0.07470703125,-1.004226684570312,294394.066131,0,10.57457,100.6932
1595636621.047055,338,0,0,1595636619.999877,1.370493736035993,103.8493519705093,12.04454,0,324.36054738165,82.21726989746094,32.00483309472351,-9999,294397.1862444167,0.039398193359375,-0.0770263671875,-1.00494384765625,294394.066131,0,10.57457,100.6932
1595636621.083487,339,0,0,1595636619.999877,1.370493736035993,103.8493519705093,12.04454,0,324.36054738165,82.21726989746094,32.00483309472351,-9999,294397.2261585417,0.037689208984375,-0.07867431640625,-1.005416870117188,294394.066131,0,10.57457,100.6932
1595636621.123279,340,0,0,1595636619.999877,1.370493736035993,103.8493519705093,12.04454,0,324.36054738165,82.21726989746094,32.00483309472351,-9999,294397.2660745417,0.0377349853515625,-0.0806121826171875,-1.007720947265625,294394.066131,0,10.57457,100.6932
1595636621.166642,341,0,0,1595636619.999877,1.370493736035993,103.8493519705093,12.04454,0,324.36054738165,82.21726989746094,32.00483309472351,-9999,294397.3059905417,0.0372467041015625,-0.082733154296875,-1.0067138671875,294394.066131,0,10.57457,100.6932
1595636621.203265,342,0,0,1595636620.999875,1.370497377725276,103.849351216797,21.83422,0.5199901,8.112322398929933,69.25650024414062,32.00483309472351,-9999,294397.3459055417,0.0363311767578125,-0.0849456787109375,-1.009078979492188,294394.066131,0,10.57457,100.6932
1595636621.243161,343,0,0,1595636620.999875,1.370497377725276,103.849351216797,21.83422,0.5199901,8.112322398929933,69.25650024414062,32.00483309472351,-9999,294397.3858215417,0.0356903076171875,-0.0893402099609375,-1.007003784179688,294394.066131,0,10.57457,100.6932
1595636621.284383,344,0,0,1595636620.999875,1.370497377725276,103.849351216797,21.83422,0.5199901,8.112322398929933,69.25650024414062,32.00483309472351,-9999,294397.4257365417,0.0355682373046875,-0.09185791015625,-1.00811767578125,294394.066131,0,10.57457,100.6932
1595636621.322905,345,0,0,1595636620.999875,1.370497377725276,103.849351216797,21.83422,0.5199901,8.112322398929933,69.25650024414062,32.00483309472351,-9999,294397.4656525417,0.0365753173828125,-0.0943756103515625,-1.004653930664062,294394.066131,0,10.57457,100.6932
1595636621.363048,346,0,0,1595636620.999875,1.370497377725276,103.849351216797,21.83422,0.5199901,8.112322398929933,69.25650024414062,32.00483309472351,-9999,294397.5055675417,0.0359954833984375,-0.0979461669921875,-1.0048828125,294395.021173,0,10.57457,100.6932
1595636621.405629,347,0,0,1595636620.999875,1.370497377725276,103.849351216797,21.83422,0.5199901,8.112322398929933,69.25650024414062,32.00483309472351,-9999,294397.5454835417,0.037139892578125,-0.1008148193359375,-1.002166748046875,294395.021173,0,10.57457,100.6932
1595636621.442738,348,0,0,1595636620.999875,1.370497377725276,103.849351216797,21.83422,0.5199901,8.112322398929933,69.25650024414062,32.00483309472351,-9999,294397.5853985417,0.0371551513671875,-0.1038665771484375,-1.000656127929688,294395.021173,0,10.57457,100.6932
1595636621.48255,349,0,0,1595636620.999875,1.370497377725276,103.849351216797,21.83422,0.5199901,8.112322398929933,69.25650024414062,32.00483309472351,-9999,294397.6253145417,0.0377349853515625,-0.1050872802734375,-1.001876831054688,294395.021173,0,10.57457,100.6932
1595636621.527942,350,0,0,1595636620.999875,1.370497377725276,103.849351216797,21.83422,0.5199901,8.112322398929933,69.25650024414062,32.00483309472351,-9999,294397.6652295417,0.037261962890625,-0.1051025390625,-1.001007080078125,294395.021173,0,10.57457,100.6932
1595636621.562437,351,0,0,1595636620.999875,1.370497377725276,103.849351216797,21.83422,0.5199901,8.112322398929933,69.25650024414062,32.00483309472351,-9999,294397.7051455417,0.039459228515625,-0.1009368896484375,-1.003646850585938,294395.021173,0,10.57457,100.6932
1595636621.602268,352,0,0,1595636620.999875,1.370497377725276,103.849351216797,21.83422,0.5199901,8.112322398929933,69.25650024414062,32.00483309472351,-9999,294397.7450605417,0.0389862060546875,-0.0972747802734375,-1.005096435546875,294395.021173,0,10.57457,100.6932
1595636621.647124,353,0,0,1595636620.999875,1.370497377725276,103.849351216797,21.83422,0.5199901,8.112322398929933,69.25650024414062,32.00483309472351,-9999,294397.7849765417,0.0386199951171875,-0.093994140625,-1.005752563476562,294395.021173,0,10.57457,100.6932
1595636621.682213,354,0,0,1595636620.999875,1.370497377725276,103.849351216797,21.83422,0.5199901,8.112322398929933,69.25650024414062,32.00483309472351,-9999,294397.8248915417,0.0385894775390625,-0.0921630859375,-1.0062255859375,294395.021173,0,10.57457,100.6932
1595636621.72214,355,0,0,1595636620.999875,1.370497377725276,103.849351216797,21.83422,0.5199901,8.112322398929933,69.25650024414062,32.00483309472351,-9999,294397.8648075417,0.0385894775390625,-0.093048095703125,-1.00823974609375,294395.021173,0,10.57457,100.6932
1595636621.765262,356,0,0,1595636620.999875,1.370497377725276,103.849351216797,21.83422,0.5199901,8.112322398929933,69.25650024414062,32.00483309472351,-9999,294397.9047225417,0.0372161865234375,-0.0924224853515625,-1.00946044921875,294395.021173,0,10.57457,100.6932
1595636621.802023,357,0,0,1595636620.999875,1.370497377725276,103.849351216797,21.83422,0.5199901,8.112322398929933,69.25650024414062,32.00483309472351,-9999,294397.9446385417,0.0376739501953125,-0.0930328369140625,-1.010406494140625,294395.021173,0,10.57457,100.6932
1595636621.841814,358,0,0,1595636620.999875,1.370497377725276,103.849351216797,21.83422,0.5199901,8.112322398929933,69.25650024414062,32.00483309472351,-9999,294397.9845545417,0.036865234375,-0.0945587158203125,-1.006011962890625,294395.021173,0,10.57457,100.6932
1595636621.885412,359,0,0,1595636620.999875,1.370497377725276,103.849351216797,21.83422,0.5199901,8.112322398929933,69.25650024414062,32.00483309472351,-9999,294398.0244695417,0.03643798828125,-0.0948486328125,-1.003143310546875,294395.021173,0,10.57457,100.6932
1595636621.921722,360,0,0,1595636620.999875,1.370497377725276,103.849351216797,21.83422,0.5199901,8.112322398929933,69.25650024414062,32.00483309472351,-9999,294398.0643855417,0.0362091064453125,-0.095367431640625,-1.003616333007812,294395.021173,0,10.57457,100.6932
1595636621.961551,361,0,0,1595636620.999875,1.370497377725276,103.849351216797,21.83422,0.5199901,8.112322398929933,69.25650024414062,32.00483309472351,-9999,294398.1043005417,0.0379638671875,-0.0965423583984375,-1.003189086914062,294395.021173,0,10.57457,100.6932
1595636622.006431,362,0,0,1595636620.999875,1.370497377725276,103.849351216797,21.83422,0.5199901,8.112322398929933,69.25650024414062,32.00483309472351,-9999,294398.1442165417,0.0373992919921875,-0.0975341796875,-1.003082275390625,294395.021173,0,10.57457,100.6932
1595636622.041739,363,0,0,1595636620.999875,1.370497377725276,103.849351216797,21.83422,0.5199901,8.112322398929933,69.25650024414062,32.00483309472351,-9999,294398.1841315417,0.0394134521484375,-0.0993804931640625,-1.004669189453125,294395.021173,0,10.57457,100.6932
1595636622.08123,364,0,0,1595636620.999875,1.370497377725276,103.849351216797,21.83422,0.5199901,8.112322398929933,69.25650024414062,32.00483309472351,-9999,294398.2240475417,0.0392608642578125,-0.0983428955078125,-1.002395629882812,294395.021173,0,10.57457,100.6932
1595636622.126936,365,0,0,1595636620.999875,1.370497377725276,103.849351216797,21.83422,0.5199901,8.112322398929933,69.25650024414062,32.00483309472351,-9999,294398.2639626667,0.0394134521484375,-0.0980072021484375,-1.001815795898438,294395.021173,0,10.57457,100.6932
1595636622.161133,366,0,0,1595636620.999875,1.370497377725276,103.849351216797,21.83422,0.5199901,8.112322398929933,69.25650024414062,32.00483309472351,-9999,294398.3038786667,0.0404815673828125,-0.0994415283203125,-1.009140014648438,294395.021173,0,10.57457,100.6932
1595636622.20104,367,0,0,1595636621.999871,1.370503481624672,103.8493491469631,22.03597,0.5199901,353.4464435092858,60.38373947143555,32.00483309472351,-9999,294398.3437936667,0.03985595703125,-0.096710205078125,-1.00555419921875,294395.021173,0,10.57457,100.6932
1595636622.242486,368,0,0,1595636621.999871,1.370503481624672,103.8493491469631,22.03597,0.5199901,353.4464435092858,60.38373947143555,32.00483309472351,-9999,294398.3837096667,0.0417327880859375,-0.097442626953125,-1.006134033203125,294395.021173,0,10.57457,100.6932
1595636622.282526,369,0,0,1595636621.999871,1.370503481624672,103.8493491469631,22.03597,0.5199901,353.4464435092858,60.38373947143555,32.00483309472351,-9999,294398.4236246667,0.040740966796875,-0.0975189208984375,-1.0108642578125,294395.021173,0,10.57457,100.6932
1595636622.320737,370,0,0,1595636621.999871,1.370503481624672,103.8493491469631,22.03597,0.5199901,353.4464435092858,60.38373947143555,32.00483309472351,-9999,294398.4635406667,0.0403289794921875,-0.0977783203125,-1.013839721679688,294395.976311,0,11.00262,100.6881
1595636622.362814,371,0,0,1595636621.999871,1.370503481624672,103.8493491469631,22.03597,0.5199901,353.4464435092858,60.38373947143555,32.00483309472351,-9999,294398.5034556667,0.0391387939453125,-0.094879150390625,-1.00579833984375,294395.976311,0,11.00262,100.6881
1595636622.400608,372,0,0,1595636621.999871,1.370503481624672,103.8493491469631,22.03597,0.5199901,353.4464435092858,60.38373947143555,32.00483309472351,-9999,294398.5433716667,0.0398101806640625,-0.0948638916015625,-1.00750732421875,294395.976311,0,11.00262,100.6881
1595636622.440583,373,0,0,1595636621.999871,1.370503481624672,103.8493491469631,22.03597,0.5199901,353.4464435092858,60.38373947143555,32.00483309472351,-9999,294398.5832876667,0.037750244140625,-0.0957794189453125,-1.001968383789062,294395.976311,0,11.00262,100.6881
1595636622.48452,374,0,0,1595636621.999871,1.370503481624672,103.8493491469631,22.03597,0.5199901,353.4464435092858,60.38373947143555,32.00483309472351,-9999,294398.6232026667,0.038330078125,-0.0963592529296875,-1.003494262695312,294395.976311,0,11.00262,100.6881
1595636622.520364,375,0,0,1595636621.999871,1.370503481624672,103.8493491469631,22.03597,0.5199901,353.4464435092858,60.38373947143555,32.00483309472351,-9999,294398.6631186667,0.038665771484375,-0.0952301025390625,-1.000152587890625,294395.976311,0,11.00262,100.6881
1595636622.560352,376,0,0,1595636621.999871,1.370503481624672,103.8493491469631,22.03597,0.5199901,353.4464435092858,60.38373947143555,32.00483309472351,-9999,294398.7030336667,0.040069580078125,-0.0970001220703125,-1.005569458007812,294395.976311,0,11.00262,100.6881
1595636622.603112,377,0,0,1595636621.999871,1.370503481624672,103.8493491469631,22.03597,0.5199901,353.4464435092858,60.38373947143555,32.00483309472351,-9999,294398.7429496667,0.03814697265625,-0.0975799560546875,-1.00048828125,294395.976311,0,11.00262,100.6881
1595636622.640138,378,0,0,1595636621.999871,1.370503481624672,103.8493491469631,22.03597,0.5199901,353.4464435092858,60.38373947143555,32.00483309472351,-9999,294398.7828646667,0.0391998291015625,-0.0973358154296875,-1.002700805664062,294395.976311,0,11.00262,100.6881
1595636622.679998,379,0,0,1595636621.999871,1.370503481624672,103.8493491469631,22.03597,0.5199901,353.4464435092858,60.38373947143555,32.00483309472351,-9999,294398.8227806667,0.0379180908203125,-0.096588134765625,-1.006088256835938,294395.976311,0,11.00262,100.6881
1595636622.721898,380,0,0,1595636621.999871,1.370503481624672,103.8493491469631,22.03597,0.5199901,353.4464435092858,60.38373947143555,32.00483309472351,-9999,294398.8626956667,0.0387115478515625,-0.0965576171875,-1.00732421875,294395.976311,0,11.00262,100.6881
1595636622.760266,381,0,0,1595636621.999871,1.370503481624672,103.8493491469631,22.03597,0.5199901,353.4464435092858,60.38373947143555,32.00483309472351,-9999,294398.9026116667,0.0378265380859375,-0.09503173828125,-1.009857177734375,294395.976311,0,11.00262,100.6881
1595636622.800089,382,0,0,1595636621.999871,1.370503481624672,103.8493491469631,22.03597,0.5199901,353.4464435092858,60.38373947143555,32.00483309472351,-9999,294398.9425266667,0.0373077392578125,-0.0955657958984375,-1.009414672851562,294395.976311,0,11.00262,100.6881
1595636622.840523,383,0,0,1595636621.999871,1.370503481624672,103.8493491469631,22.03597,0.5199901,353.4464435092858,60.38373947143555,32.00483309472351,-9999,294398.9824426667,0.0365447998046875,-0.0935821533203125,-1.01171875,294395.976311,0,11.00262,100.6881
1595636622.87954,384,0,0,1595636621.999871,1.370503481624672,103.8493491469631,22.03597,0.5199901,353.4464435092858,60.38373947143555,32.00483309472351,-9999,294399.0223576667,0.0349578857421875,-0.0943450927734375,-1.008163452148438,294395.976311,0,11.00262,100.6881
1595636622.919319,385,0,0,1595636621.999871,1.370503481624672,103.8493491469631,22.03597,0.5199901,353.4464435092858,60.38373947143555,32.00483309472351,-9999,294399.0622736667,0.0347137451171875,-0.0949249267578125,-1.009963989257812,294395.976311,0,11.00262,100.6881
1595636622.963923,386,0,0,1595636621.999871,1.370503481624672,103.8493491469631,22.03597,0.5199901,353.4464435092858,60.38373947143555,32.00483309472351,-9999,294399.1021896667,0.03662109375,-0.0962371826171875,-1.00018310546875,294395.976311,0,11.00262,100.6881
1595636622.999412,387,0,0,1595636621.999871,1.370503481624672,103.8493491469631,22.03597,0.5199901,353.4464435092858,60.38373947143555,32.00483309472351,-9999,294399.1421046667,0.0346221923828125,-0.09686279296875,-1.001205444335938,294395.976311,0,11.00262,100.6881
1595636623.039206,388,0,0,1595636621.999871,1.370503481624672,103.8493491469631,22.03597,0.5199901,353.4464435092858,60.38373947143555,32.00483309472351,-9999,294399.1820206667,0.037139892578125,-0.096435546875,-0.997222900390625,294395.976311,0,11.00262,100.6881
1595636623.085486,389,0,0,1595636621.999871,1.370503481624672,103.8493491469631,22.03597,0.5199901,353.4464435092858,60.38373947143555,32.00483309472351,-9999,294399.2219356667,0.0376739501953125,-0.09716796875,-0.9995574951171875,294395.976311,0,11.00262,100.6881
1595636623.11899,390,0,0,1595636621.999871,1.370503481624672,103.8493491469631,22.03597,0.5199901,353.4464435092858,60.38373947143555,32.00483309472351,-9999,294399.261851625,0.0401611328125,-0.09918212890625,-0.998291015625,294395.976311,0,11.00262,100.6881
1595636623.15897,391,0,0,1595636621.999871,1.370503481624672,103.8493491469631,22.03597,0.5199901,353.4464435092858,60.38373947143555,32.00483309472351,-9999,294399.301766625,0.04071044921875,-0.100555419921875,-0.9969024658203125,294395.976311,0,11.00262,100.6881
1595636623.203929,392,0,0,1595636622.999867,1.370511288644591,103.8493510620036,22.21182,0.771454,352.8757948645095,52.54327392578125,32.00483309472351,-9999,294399.341682625,0.04229736328125,-0.0991973876953125,-0.9994659423828125,294395.976311,0,11.00262,100.6881
1595636623.238847,393,0,0,1595636622.999867,1.370511288644591,103.8493510620036,22.21182,0.771454,352.8757948645095,52.54327392578125,32.00483309472351,-9999,294399.381597625,0.0435791015625,-0.0984039306640625,-1.002944946289062,294395.976311,0,11.00262,100.6881
1595636623.27873,394,0,0,1595636622.999867,1.370511288644591,103.8493510620036,22.21182,0.771454,352.8757948645095,52.54327392578125,32.00483309472351,-9999,294399.421513625,0.04559326171875,-0.1008758544921875,-1.010086059570312,294396.931425,0,12.04898,100.6756
1595636623.319703,395,0,0,1595636622.999867,1.370511288644591,103.8493510620036,22.21182,0.771454,352.8757948645095,52.54327392578125,32.00483309472351,-9999,294399.461429625,0.04547119140625,-0.096923828125,-1.009414672851562,294396.931425,0,12.04898,100.6756
1595636623.358555,396,0,0,1595636622.999867,1.370511288644591,103.8493510620036,22.21182,0.771454,352.8757948645095,52.54327392578125,32.00483309472351,-9999,294399.501344625,0.045623779296875,-0.094390869140625,-1.009445190429688,294396.931425,0,12.04898,100.6756
1595636623.401714,397,0,0,1595636622.999867,1.370511288644591,103.8493510620036,22.21182,0.771454,352.8757948645095,52.54327392578125,32.00483309472351,-9999,294399.541260625,0.0462188720703125,-0.0978851318359375,-1.017471313476562,294396.931425,0,12.04898,100.6756
1595636623.441317,398,0,0,1595636622.999867,1.370511288644591,103.8493510620036,22.21182,0.771454,352.8757948645095,52.54327392578125,32.00483309472351,-9999,294399.581175625,0.0481109619140625,-0.0972137451171875,-1.004013061523438,294396.931425,0,12.04898,100.6756
1595636623.478232,399,0,0,1595636622.999867,1.370511288644591,103.8493510620036,22.21182,0.771454,352.8757948645095,52.54327392578125,32.00483309472351,-9999,294399.621091625,0.046478271484375,-0.0948028564453125,-1.008209228515625,294396.931425,0,12.04898,100.6756
1595636623.518448,400,0,0,1595636622.999867,1.370511288644591,103.8493510620036,22.21182,0.771454,352.8757948645095,52.54327392578125,32.00483309472351,-9999,294399.661006625,0.046630859375,-0.0928802490234375,-1.0052490234375,294396.931425,0,12.04898,100.6756
1595636623.56263,401,0,0,1595636622.999867,1.370511288644591,103.8493510620036,22.21182,0.771454,352.8757948645095,52.54327392578125,32.00483309472351,-9999,294399.700922625,0.04608154296875,-0.09576416015625,-1.004287719726562,294396.931425,0,12.04898,100.6756
1595636623.599684,402,0,0,1595636622.999867,1.370511288644591,103.8493510620036,22.21182,0.771454,352.8757948645095,52.54327392578125,32.00483309472351,-9999,294399.740838625,0.0480804443359375,-0.097991943359375,-1.001678466796875,294396.931425,0,12.04898,100.6756
1595636623.638051,403,0,0,1595636622.999867,1.370511288644591,103.8493510620036,22.21182,0.771454,352.8757948645095,52.54327392578125,32.00483309472351,-9999,294399.780753625,0.045806884765625,-0.097991943359375,-0.996490478515625,294396.931425,0,12.04898,100.6756
1595636623.680859,404,0,0,1595636622.999867,1.370511288644591,103.8493510620036,22.21182,0.771454,352.8757948645095,52.54327392578125,32.00483309472351,-9999,294399.820669625,0.04541015625,-0.0966644287109375,-0.996490478515625,294396.931425,0,12.04898,100.6756
1595636623.717966,405,0,0,1595636622.999867,1.370511288644591,103.8493510620036,22.21182,0.771454,352.8757948645095,52.54327392578125,32.00483309472351,-9999,294399.860584625,0.044189453125,-0.10009765625,-0.995513916015625,294396.931425,0,12.04898,100.6756
1595636623.757765,406,0,0,1595636622.999867,1.370511288644591,103.8493510620036,22.21182,0.771454,352.8757948645095,52.54327392578125,32.00483309472351,-9999,294399.900500625,0.043212890625,-0.1013641357421875,-0.9999847412109375,294396.931425,0,12.04898,100.6756
1595636623.801219,407,0,0,1595636622.999867,1.370511288644591,103.8493510620036,22.21182,0.771454,352.8757948645095,52.54327392578125,32.00483309472351,-9999,294399.940416625,0.04449462890625,-0.09808349609375,-1.003616333007812,294396.931425,0,12.04898,100.6756
1595636623.837562,408,0,0,1595636622.999867,1.370511288644591,103.8493510620036,22.21182,0.771454,352.8757948645095,52.54327392578125,32.00483309472351,-9999,294399.980331625,0.0419769287109375,-0.0984649658203125,-1.003814697265625,294396.931425,0,12.04898,100.6756
1595636623.877361,409,0,0,1595636622.999867,1.370511288644591,103.8493510620036,22.21182,0.771454,352.8757948645095,52.54327392578125,32.00483309472351,-9999,294400.020247625,0.0404205322265625,-0.0974884033203125,-1.010147094726562,294396.931425,0,12.04898,100.6756
1595636623.921888,410,0,0,1595636622.999867,1.370511288644591,103.8493510620036,22.21182,0.771454,352.8757948645095,52.54327392578125,32.00483309472351,-9999,294400.060162625,0.0394134521484375,-0.0954742431640625,-1.008193969726562,294396.931425,0,12.04898,100.6756
1595636623.957443,411,0,0,1595636622.999867,1.370511288644591,103.8493510620036,22.21182,0.771454,352.8757948645095,52.54327392578125,32.00483309472351,-9999,294400.100078625,0.037811279296875,-0.0966644287109375,-1.003921508789062,294396.931425,0,12.04898,100.6756
1595636623.997291,412,0,0,1595636622.999867,1.370511288644591,103.8493510620036,22.21182,0.771454,352.8757948645095,52.54327392578125,32.00483309472351,-9999,294400.139994625,0.0373992919921875,-0.095977783203125,-1.008682250976562,294396.931425,0,12.04898,100.6756
1595636624.043369,413,0,0,1595636622.999867,1.370511288644591,103.8493510620036,22.21182,0.771454,352.8757948645095,52.54327392578125,32.00483309472351,-9999,294400.179909625,0.037841796875,-0.0975494384765625,-1.00018310546875,294396.931425,0,12.04898,100.6756
1595636624.077053,414,0,0,1595636622.999867,1.370511288644591,103.8493510620036,22.21182,0.771454,352.8757948645095,52.54327392578125,32.00483309472351,-9999,294400.219825625,0.03472900390625,-0.0964508056640625,-1.001327514648438,294396.931425,0,12.04898,100.6756
1595636624.117536,415,0,0,1595636622.999867,1.370511288644591,103.8493510620036,22.21182,0.771454,352.8757948645095,52.54327392578125,32.00483309472351,-9999,294400.2597425,0.037994384765625,-0.0989227294921875,-0.99920654296875,294396.931425,0,12.04898,100.6756
1595636624.162842,416,0,0,1595636622.999867,1.370511288644591,103.8493510620036,22.21182,0.771454,352.8757948645095,52.54327392578125,32.00483309472351,-9999,294400.2996575,0.03558349609375,-0.09967041015625,-0.9962921142578125,294396.931425,0,12.04898,100.6756
1595636624.196845,417,0,0,1595636623.999863,1.370527978579598,103.8493494805998,22.36957,0.9239781,352.6521744710834,47.00544738769531,32.00483309472351,-9999,294400.3395735,0.039093017578125,-0.1019134521484375,-0.9956207275390625,294397.886476,0,13.21688,100.6616
1595636624.236679,418,0,0,1595636623.999863,1.370527978579598,103.8493494805998,22.36957,0.9239781,352.6521744710834,47.00544738769531,32.00483309472351,-9999,294400.3794885,0.03912353515625,-0.0999603271484375,-1.003631591796875,294397.886476,0,13.21688,100.6616
1595636624.284812,419,0,0,1595636623.999863,1.370527978579598,103.8493494805998,22.36957,0.9239781,352.6521744710834,47.00544738769531,32.00483309472351,-9999,294400.4194045,0.04058837890625,-0.1000518798828125,-0.99658203125,294397.886476,0,13.21688,100.6616
1595636624.318106,420,0,0,1595636623.999863,1.370527978579598,103.8493494805998,22.36957,0.9239781,352.6521744710834,47.00544738769531,32.00483309472351,-9999,294400.4593205,0.0425872802734375,-0.0998077392578125,-1.002365112304688,294397.886476,0,13.21688,100.6616
1595636624.356403,421,0,0,1595636623.999863,1.370527978579598,103.8493494805998,22.36957,0.9239781,352.6521744710834,47.00544738769531,32.00483309472351,-9999,294400.4992355,0.0433807373046875,-0.099884033203125,-1.002487182617188,294397.886476,0,13.21688,100.6616
1595636624.40228,422,0,0,1595636623.999863,1.370527978579598,103.8493494805998,22.36957,0.9239781,352.6521744710834,47.00544738769531,32.00483309472351,-9999,294400.5391515,0.04449462890625,-0.096588134765625,-1.011016845703125,294397.886476,0,13.21688,100.6616
1595636624.436271,423,0,0,1595636623.999863,1.370527978579598,103.8493494805998,22.36957,0.9239781,352.6521744710834,47.00544738769531,32.00483309472351,-9999,294400.5790675,0.04498291015625,-0.09600830078125,-1.01220703125,294397.886476,0,13.21688,100.6616
1595636624.476135,424,0,0,1595636623.999863,1.370527978579598,103.8493494805998,22.36957,0.9239781,352.6521744710834,47.00544738769531,32.00483309472351,-9999,294400.6189825,0.042449951171875,-0.0973663330078125,-1.006576538085938,294397.886476,0,13.21688,100.6616
1595636624.52451,425,0,0,1595636623.999863,1.370527978579598,103.8493494805998,22.36957,0.9239781,352.6521744710834,47.00544738769531,32.00483309472351,-9999,294400.6588985,0.0426177978515625,-0.0950775146484375,-1.006744384765625,294397.886476,0,13.21688,100.6616
1595636624.555944,426,0,0,1595636623.999863,1.370527978579598,103.8493494805998,22.36957,0.9239781,352.6521744710834,47.00544738769531,32.00483309472351,-9999,294400.6988145,0.0417327880859375,-0.0958251953125,-1.006515502929688,294397.886476,0,13.21688,100.6616
1595636624.595943,427,0,0,1595636623.999863,1.370527978579598,103.8493494805998,22.36957,0.9239781,352.6521744710834,47.00544738769531,32.00483309472351,-9999,294400.7387295,0.0419158935546875,-0.094451904296875,-1.00909423828125,294397.886476,0,13.21688,100.6616
1595636624.641421,428,0,0,1595636623.999863,1.370527978579598,103.8493494805998,22.36957,0.9239781,352.6521744710834,47.00544738769531,32.00483309472351,-9999,294400.7786455,0.0390472412109375,-0.095794677734375,-1.004684448242188,294397.886476,0,13.21688,100.6616
1595636624.675853,429,0,0,1595636623.999863,1.370527978579598,103.8493494805998,22.36957,0.9239781,352.6521744710834,47.00544738769531,32.00483309472351,-9999,294400.8185615,0.038604736328125,-0.097412109375,-1.001617431640625,294397.886476,0,13.21688,100.6616
1595636624.718876,430,0,0,1595636623.999863,1.370527978579598,103.8493494805998,22.36957,0.9239781,352.6521744710834,47.00544738769531,32.00483309472351,-9999,294400.8584765,0.0395050048828125,-0.0973663330078125,-1.006759643554688,294397.886476,0,13.21688,100.6616
1595636624.764181,431,0,0,1595636623.999863,1.370527978579598,103.8493494805998,22.36957,0.9239781,352.6521744710834,47.00544738769531,32.00483309472351,-9999,294400.8983925,0.040802001953125,-0.0977783203125,-0.998016357421875,294397.886476,0,13.21688,100.6616
1595636624.795552,432,0,0,1595636623.999863,1.370527978579598,103.8493494805998,22.36957,0.9239781,352.6521744710834,47.00544738769531,32.00483309472351,-9999,294400.9383085,0.040130615234375,-0.09747314453125,-1.00531005859375,294397.886476,0,13.21688,100.6616
1595636624.83545,433,0,0,1595636623.999863,1.370527978579598,103.8493494805998,22.36957,0.9239781,352.6521744710834,47.00544738769531,32.00483309472351,-9999,294400.9782235,0.0433502197265625,-0.0987091064453125,-1.00457763671875,294397.886476,0,13.21688,100.6616
1595636624.884437,434,0,0,1595636623.999863,1.370527978579598,103.8493494805998,22.36957,0.9239781,352.6521744710834,47.00544738769531,32.00483309472351,-9999,294401.0181395,0.0409393310546875,-0.09759521484375,-1.008514404296875,294397.886476,0,13.21688,100.6616
1595636624.918668,435,0,0,1595636623.999863,1.370527978579598,103.8493494805998,22.36957,0.9239781,352.6521744710834,47.00544738769531,32.00483309472351,-9999,294401.0580555,0.0456085205078125,-0.0985260009765625,-1.006072998046875,294397.886476,0,13.21688,100.6616
1595636624.955107,436,0,0,1595636623.999863,1.370527978579598,103.8493494805998,22.36957,0.9239781,352.6521744710834,47.00544738769531,32.00483309472351,-9999,294401.0979705,0.044464111328125,-0.097412109375,-1.013671875,294397.886476,0,13.21688,100.6616
1595636625.003772,437,0,0,1595636623.999863,1.370527978579598,103.8493494805998,22.36957,0.9239781,352.6521744710834,47.00544738769531,32.00483309472351,-9999,294401.1378865,0.046844482421875,-0.096893310546875,-1.012344360351562,294397.886476,0,13.21688,100.6616
1595636625.035267,438,0,0,1595636623.999863,1.370527978579598,103.8493494805998,22.36957,0.9239781,352.6521744710834,47.00544738769531,32.00483309472351,-9999,294401.1778025,0.04498291015625,-0.095367431640625,-1.015838623046875,294397.886476,0,13.21688,100.6616
1595636625.074822,439,0,0,1595636623.999863,1.370527978579598,103.8493494805998,22.36957,0.9239781,352.6521744710834,47.00544738769531,32.00483309472351,-9999,294401.2177185,0.0461273193359375,-0.0947723388671875,-1.017227172851562,294397.886476,0,13.21688,100.6616
1595636625.121627,440,0,0,1595636623.999863,1.370527978579598,103.8493494805998,22.36957,0.9239781,352.6521744710834,47.00544738769531,32.00483309472351,-9999,294401.25763325,0.0440826416015625,-0.0950775146484375,-1.014450073242188,294397.886476,0,13.21688,100.6616
1595636625.154737,441,0,0,1595636623.999863,1.370527978579598,103.8493494805998,22.36957,0.9239781,352.6521744710834,47.00544738769531,32.00483309472351,-9999,294401.29754925,0.045501708984375,-0.095794677734375,-1.011856079101562,294398.841556,0,14.40064,100.6475
1595636625.194611,442,0,0,1595636624.999861,1.370543016539411,103.8493453196292,22.49711,-1,-1,64.05863952636719,32.00483309472351,-9999,294401.33746525,0.0443878173828125,-0.094635009765625,-1.010177612304688,294398.841556,0,14.40064,100.6475
1595636625.243172,443,0,0,1595636624.999861,1.370543016539411,103.8493453196292,22.49711,-1,-1,64.05863952636719,32.00483309472351,-9999,294401.37738025,0.045440673828125,-0.09600830078125,-1.011947631835938,294398.841556,0,14.40064,100.6475
1595636625.274531,444,0,0,1595636624.999861,1.370543016539411,103.8493453196292,22.49711,-1,-1,64.05863952636719,32.00483309472351,-9999,294401.41729625,0.04632568359375,-0.0941162109375,-1.01116943359375,294398.841556,0,14.40064,100.6475
1595636625.314538,445,0,0,1595636624.999861,1.370543016539411,103.8493453196292,22.49711,-1,-1,64.05863952636719,32.00483309472351,-9999,294401.45721225,0.0471649169921875,-0.0981597900390625,-1.00885009765625,294398.841556,0,14.40064,100.6475
1595636625.364356,446,0,0,1595636624.999861,1.370543016539411,103.8493453196292,22.49711,-1,-1,64.05863952636719,32.00483309472351,-9999,294401.49712825,0.045684814453125,-0.0951690673828125,-1.006591796875,294398.841556,0,14.40064,100.6475
1595636625.394283,447,0,0,1595636624.999861,1.370543016539411,103.8493453196292,22.49711,-1,-1,64.05863952636719,32.00483309472351,-9999,294401.53704325,0.0491180419921875,-0.0975341796875,-1.005813598632812,294398.841556,0,14.40064,100.6475
1595636625.434361,448,0,0,1595636624.999861,1.370543016539411,103.8493453196292,22.49711,-1,-1,64.05863952636719,32.00483309472351,-9999,294401.57695925,0.049285888671875,-0.097259521484375,-1.008773803710938,294398.841556,0,14.40064,100.6475
1595636625.483823,449,0,0,1595636624.999861,1.370543016539411,103.8493453196292,22.49711,-1,-1,64.05863952636719,32.00483309472351,-9999,294401.61687525,0.049652099609375,-0.0988616943359375,-1.009857177734375,294398.841556,0,14.40064,100.6475
1595636625.514065,450,0,0,1595636624.999861,1.370543016539411,103.8493453196292,22.49711,-1,-1,64.05863952636719,32.00483309472351,-9999,294401.65679025,0.0481109619140625,-0.0951080322265625,-1.009231567382812,294398.841556,0,14.40064,100.6475
1595636625.553832,451,0,0,1595636624.999861,1.370543016539411,103.8493453196292,22.49711,-1,-1,64.05863952636719,32.00483309472351,-9999,294401.69670625,0.0467987060546875,-0.0950469970703125,-1.001617431640625,294398.841556,0,14.40064,100.6475
1595636625.601498,452,0,0,1595636624.999861,1.370543016539411,103.8493453196292,22.49711,-1,-1,64.05863952636719,32.00483309472351,-9999,294401.73662225,0.0460205078125,-0.0944976806640625,-1.011154174804688,294398.841556,0,14.40064,100.6475
1595636625.635686,453,0,0,1595636624.999861,1.370543016539411,103.8493453196292,22.49711,-1,-1,64.05863952636719,32.00483309472351,-9999,294401.77653825,0.04736328125,-0.094024658203125,-1.013168334960938,294398.841556,0,14.40064,100.6475
1595636625.673568,454,0,0,1595636624.999861,1.370543016539411,103.8493453196292,22.49711,-1,-1,64.05863952636719,32.00483309472351,-9999,294401.81645325,0.04669189453125,-0.092926025390625,-1.0069580078125,294398.841556,0,14.40064,100.6475
1595636625.723684,455,0,0,1595636624.999861,1.370543016539411,103.8493453196292,22.49711,-1,-1,64.05863952636719,32.00483309472351,-9999,294401.85636925,0.0451202392578125,-0.093292236328125,-1.004501342773438,294398.841556,0,14.40064,100.6475
1595636625.753586,456,0,0,1595636624.999861,1.370543016539411,103.8493453196292,22.49711,-1,-1,64.05863952636719,32.00483309472351,-9999,294401.89628525,0.0460357666015625,-0.09625244140625,-1.000320434570312,294398.841556,0,14.40064,100.6475
1595636625.793676,457,0,0,1595636624.999861,1.370543016539411,103.8493453196292,22.49711,-1,-1,64.05863952636719,32.00483309472351,-9999,294401.93620125,0.0480499267578125,-0.0983734130859375,-0.99908447265625,294398.841556,0,14.40064,100.6475
1595636625.841824,458,0,0,1595636624.999861,1.370543016539411,103.8493453196292,22.49711,-1,-1,64.05863952636719,32.00483309472351,-9999,294401.97611625,0.046722412109375,-0.0988922119140625,-1.00054931640625,294398.841556,0,14.40064,100.6475
1595636625.873247,459,0,0,1595636624.999861,1.370543016539411,103.8493453196292,22.49711,-1,-1,64.05863952636719,32.00483309472351,-9999,294402.01603225,0.04833984375,-0.1017303466796875,-0.9940948486328125,294398.841556,0,14.40064,100.6475
1595636625.913421,460,0,0,1595636624.999861,1.370543016539411,103.8493453196292,22.49711,-1,-1,64.05863952636719,32.00483309472351,-9999,294402.05594825,0.04888916015625,-0.102020263671875,-0.9922637939453125,294398.841556,0,14.40064,100.6475
1595636625.963813,461,0,0,1595636624.999861,1.370543016539411,103.8493453196292,22.49711,-1,-1,64.05863952636719,32.00483309472351,-9999,294402.09586425,0.049530029296875,-0.1014862060546875,-0.9930572509765625,294398.841556,0,14.40064,100.6475
1595636625.993037,462,0,0,1595636624.999861,1.370543016539411,103.8493453196292,22.49711,-1,-1,64.05863952636719,32.00483309472351,-9999,294402.13577925,0.049957275390625,-0.098785400390625,-1.001129150390625,294398.841556,0,14.40064,100.6475
1595636626.036339,463,0,0,1595636624.999861,1.370543016539411,103.8493453196292,22.49711,-1,-1,64.05863952636719,32.00483309472351,-9999,294402.17569525,0.0503082275390625,-0.0981597900390625,-0.999664306640625,294398.841556,0,14.40064,100.6475
1595636626.085398,464,0,0,1595636624.999861,1.370543016539411,103.8493453196292,22.49711,-1,-1,64.05863952636719,32.00483309472351,-9999,294402.21561125,0.047821044921875,-0.0967559814453125,-0.9975433349609375,294398.841556,0,14.40064,100.6475
1595636626.112735,465,0,0,1595636624.999861,1.370543016539411,103.8493453196292,22.49711,-1,-1,64.05863952636719,32.00483309472351,-9999,294402.255527375,0.047698974609375,-0.097747802734375,-1.001800537109375,294399.796756,0,15.56062,100.6336
1595636626.152584,466,0,0,1595636624.999861,1.370543016539411,103.8493453196292,22.49711,-1,-1,64.05863952636719,32.00483309472351,-9999,294402.295443375,0.0448455810546875,-0.095733642578125,-1.004898071289062,294399.796756,0,15.56062,100.6336
1595636626.202643,467,0,0,1595636625.999857,1.370565614362834,103.8493430569747,22.58478,-1,-1,241.9527282714844,32.00483309472351,-9999,294402.335358375,0.04669189453125,-0.093994140625,-1.002670288085938,294399.796756,0,15.56062,100.6336
1595636626.236345,468,0,0,1595636625.999857,1.370565614362834,103.8493430569747,22.58478,-1,-1,241.9527282714844,32.00483309472351,-9999,294402.375274375,0.044097900390625,-0.09375,-1.009017944335938,294399.796756,0,15.56062,100.6336
